participant,item,size,contrast,slider.response,my_rs,total_residuals,unique_item_no,session,trials.thisN,condition_abs,half,literacy,age_textbox.text,gender_slider.response,dot_pitch,res_width,VT_perc_correct,VT_no_correct,difference
54,4,N,I,0.111111111,0.253863636,97.45,16,﻿64be4ccf6a3b58bca6f47378,0,Y,First,20,24,M,0.32345312499999995,2560,100,6,0.14275252500000002
54,22,N,I,0.5625,0.577045455,82.45,88,﻿64be4ccf6a3b58bca6f47378,1,Y,First,20,24,M,0.32345312499999995,2560,100,6,0.01454545500000004
54,32,I,N,0.847222222,0.756590909,65.73,127,﻿64be4ccf6a3b58bca6f47378,2,X,First,20,24,M,0.32345312499999995,2560,100,6,-0.09063131299999994
54,25,N,N,0.927083333,0.630909091,78.2,97,﻿64be4ccf6a3b58bca6f47378,3,A,First,20,24,M,0.32345312499999995,2560,100,6,-0.296174242
54,23,I,N,0.348611111,0.595,81.13,91,﻿64be4ccf6a3b58bca6f47378,4,X,First,20,24,M,0.32345312499999995,2560,100,6,0.246388889
54,24,N,N,0.954166667,0.612954545,79.66,93,﻿64be4ccf6a3b58bca6f47378,5,A,First,20,24,M,0.32345312499999995,2560,100,6,-0.34121212199999995
54,26,N,N,0.977777778,0.648863636,76.62,101,﻿64be4ccf6a3b58bca6f47378,6,A,First,20,24,M,0.32345312499999995,2560,100,6,-0.328914142
54,21,N,I,0.841666667,0.559090909,83.77,84,﻿64be4ccf6a3b58bca6f47378,7,Y,First,20,24,M,0.32345312499999995,2560,100,6,-0.282575758
54,10,N,N,0.870138889,0.361590909,94.23,37,﻿64be4ccf6a3b58bca6f47378,8,A,First,20,24,M,0.32345312499999995,2560,100,6,-0.50854798
54,13,N,I,0.661805556,0.415454545,91.98,52,﻿64be4ccf6a3b58bca6f47378,9,Y,First,20,24,M,0.32345312499999995,2560,100,6,-0.246351011
54,15,N,I,0.539583333,0.451363636,90.29,60,﻿64be4ccf6a3b58bca6f47378,10,Y,First,20,24,M,0.32345312499999995,2560,100,6,-0.08821969700000004
54,28,N,N,0.893055556,0.684772727,73.36,109,﻿64be4ccf6a3b58bca6f47378,11,A,First,20,24,M,0.32345312499999995,2560,100,6,-0.20828282899999995
54,41,I,N,0.98125,0.918181818,39.66,163,﻿64be4ccf6a3b58bca6f47378,12,X,First,20,24,M,0.32345312499999995,2560,100,6,-0.06306818199999997
54,14,N,N,0.80625,0.433409091,91.2,53,﻿64be4ccf6a3b58bca6f47378,13,A,First,20,24,M,0.32345312499999995,2560,100,6,-0.372840909
54,23,N,I,0.661805556,0.595,81.13,92,﻿64be4ccf6a3b58bca6f47378,14,Y,First,20,24,M,0.32345312499999995,2560,100,6,-0.06680555600000004
54,34,N,N,0.922916667,0.7925,61.29,133,﻿64be4ccf6a3b58bca6f47378,15,A,First,20,24,M,0.32345312499999995,2560,100,6,-0.13041666699999999
54,30,I,I,0.7625,0.720681818,69.76,118,﻿64be4ccf6a3b58bca6f47378,16,B,First,20,24,M,0.32345312499999995,2560,100,6,-0.04181818199999998
54,12,N,I,0.222916667,0.3975,92.82,48,﻿64be4ccf6a3b58bca6f47378,17,Y,First,20,24,M,0.32345312499999995,2560,100,6,0.174583333
54,28,N,I,0.266666667,0.684772727,73.36,112,﻿64be4ccf6a3b58bca6f47378,18,Y,First,20,24,M,0.32345312499999995,2560,100,6,0.41810606
54,33,I,I,0.286805556,0.774545455,63.57,130,﻿64be4ccf6a3b58bca6f47378,19,B,First,20,24,M,0.32345312499999995,2560,100,6,0.48773989900000003
54,17,I,N,0.184722222,0.487272727,88.33,67,﻿64be4ccf6a3b58bca6f47378,20,X,First,20,24,M,0.32345312499999995,2560,100,6,0.302550505
54,28,I,I,0.186111111,0.684772727,73.36,110,﻿64be4ccf6a3b58bca6f47378,21,B,First,20,24,M,0.32345312499999995,2560,100,6,0.49866161600000003
54,40,I,N,0.928472222,0.900227273,43.56,159,﻿64be4ccf6a3b58bca6f47378,22,X,First,20,24,M,0.32345312499999995,2560,100,6,-0.028244948999999964
54,23,I,I,0.048611111,0.595,81.13,90,﻿64be4ccf6a3b58bca6f47378,23,B,First,20,24,M,0.32345312499999995,2560,100,6,0.5463888889999999
54,32,I,I,0.227083333,0.756590909,65.73,126,﻿64be4ccf6a3b58bca6f47378,24,B,First,20,24,M,0.32345312499999995,2560,100,6,0.5295075760000001
54,39,I,N,0.811805556,0.882272727,47.19,155,﻿64be4ccf6a3b58bca6f47378,25,X,First,20,24,M,0.32345312499999995,2560,100,6,0.070467171
54,7,N,I,0.3375,0.307727273,96.03,28,﻿64be4ccf6a3b58bca6f47378,26,Y,First,20,24,M,0.32345312499999995,2560,100,6,-0.029772727
54,4,N,N,0.400694444,0.253863636,97.45,13,﻿64be4ccf6a3b58bca6f47378,27,A,First,20,24,M,0.32345312499999995,2560,100,6,-0.14683080799999998
54,35,N,N,0.982638889,0.810454545,58.87,137,﻿64be4ccf6a3b58bca6f47378,28,A,First,20,24,M,0.32345312499999995,2560,100,6,-0.17218434399999993
54,5,N,I,0.425694444,0.271818182,96.99,20,﻿64be4ccf6a3b58bca6f47378,29,Y,First,20,24,M,0.32345312499999995,2560,100,6,-0.15387626199999999
54,8,N,N,0.806944444,0.325681818,95.52,29,﻿64be4ccf6a3b58bca6f47378,30,A,First,20,24,M,0.32345312499999995,2560,100,6,-0.48126262599999997
54,42,N,I,0.990972222,0.936136364,35.25,168,﻿64be4ccf6a3b58bca6f47378,31,Y,First,20,24,M,0.32345312499999995,2560,100,6,-0.054835858000000015
54,19,N,N,0.854861111,0.523181818,86.21,73,﻿64be4ccf6a3b58bca6f47378,32,A,First,20,24,M,0.32345312499999995,2560,100,6,-0.331679293
54,11,I,N,0.05,0.379545455,93.55,43,﻿64be4ccf6a3b58bca6f47378,33,X,First,20,24,M,0.32345312499999995,2560,100,6,0.329545455
54,13,N,N,0.63125,0.415454545,91.98,49,﻿64be4ccf6a3b58bca6f47378,34,A,First,20,24,M,0.32345312499999995,2560,100,6,-0.21579545499999997
54,20,I,I,0.404166667,0.541136364,85.04,78,﻿64be4ccf6a3b58bca6f47378,35,B,First,20,24,M,0.32345312499999995,2560,100,6,0.136969697
54,8,I,I,0.275,0.325681818,95.52,30,﻿64be4ccf6a3b58bca6f47378,36,B,First,20,24,M,0.32345312499999995,2560,100,6,0.05068181799999999
54,38,N,I,0.945833333,0.864318182,50.47,152,﻿64be4ccf6a3b58bca6f47378,37,Y,First,20,24,M,0.32345312499999995,2560,100,6,-0.08151515100000006
54,27,N,I,0.663888889,0.666818182,75.05,108,﻿64be4ccf6a3b58bca6f47378,38,Y,First,20,24,M,0.32345312499999995,2560,100,6,0.0029292929999999995
54,42,N,N,1,0.936136364,35.25,165,﻿64be4ccf6a3b58bca6f47378,39,A,First,20,24,M,0.32345312499999995,2560,100,6,-0.063863636
54,41,I,I,0.9,0.918181818,39.66,162,﻿64be4ccf6a3b58bca6f47378,40,B,First,20,24,M,0.32345312499999995,2560,100,6,0.01818181799999996
54,28,I,N,0.74375,0.684772727,73.36,111,﻿64be4ccf6a3b58bca6f47378,41,X,First,20,24,M,0.32345312499999995,2560,100,6,-0.058977273
54,24,N,I,0.645138889,0.612954545,79.66,96,﻿64be4ccf6a3b58bca6f47378,42,Y,First,20,24,M,0.32345312499999995,2560,100,6,-0.03218434400000003
54,40,N,N,0.964583333,0.900227273,43.56,157,﻿64be4ccf6a3b58bca6f47378,43,A,First,20,24,M,0.32345312499999995,2560,100,6,-0.06435605999999994
54,29,N,I,0.5875,0.702727273,71.6,116,﻿64be4ccf6a3b58bca6f47378,44,Y,First,20,24,M,0.32345312499999995,2560,100,6,0.11522727300000002
54,14,N,I,0.486805556,0.433409091,91.2,56,﻿64be4ccf6a3b58bca6f47378,45,Y,First,20,24,M,0.32345312499999995,2560,100,6,-0.05339646499999995
54,38,I,N,0.370833333,0.864318182,50.47,151,﻿64be4ccf6a3b58bca6f47378,46,X,First,20,24,M,0.32345312499999995,2560,100,6,0.493484849
54,14,I,I,0.099305556,0.433409091,91.2,54,﻿64be4ccf6a3b58bca6f47378,48,B,First,20,24,M,0.32345312499999995,2560,100,6,0.334103535
54,22,I,N,0.130555556,0.577045455,82.45,87,﻿64be4ccf6a3b58bca6f47378,49,X,First,20,24,M,0.32345312499999995,2560,100,6,0.446489899
54,37,N,I,0.659027778,0.846363636,53.4,148,﻿64be4ccf6a3b58bca6f47378,50,Y,First,20,24,M,0.32345312499999995,2560,100,6,0.18733585799999997
54,3,I,I,NA,0.235909091,97.87,10,﻿64be4ccf6a3b58bca6f47378,51,B,First,20,24,M,0.32345312499999995,2560,100,6,NA
54,12,I,I,0.100694444,0.3975,92.82,46,﻿64be4ccf6a3b58bca6f47378,52,B,First,20,24,M,0.32345312499999995,2560,100,6,0.296805556
54,29,I,N,0.192361111,0.702727273,71.6,115,﻿64be4ccf6a3b58bca6f47378,53,X,First,20,24,M,0.32345312499999995,2560,100,6,0.5103661620000001
54,10,N,I,0.116666667,0.361590909,94.23,40,﻿64be4ccf6a3b58bca6f47378,54,Y,First,20,24,M,0.32345312499999995,2560,100,6,0.24492424200000001
54,26,N,I,0.157638889,0.648863636,76.62,104,﻿64be4ccf6a3b58bca6f47378,55,Y,First,20,24,M,0.32345312499999995,2560,100,6,0.49122474699999996
54,44,N,I,0.989583333,0.972045455,23.65,176,﻿64be4ccf6a3b58bca6f47378,56,Y,First,20,24,M,0.32345312499999995,2560,100,6,-0.017537878000000062
54,45,I,I,0.963194444,0.99,14.13,178,﻿64be4ccf6a3b58bca6f47378,57,B,First,20,24,M,0.32345312499999995,2560,100,6,0.026805556000000008
54,15,I,N,0.285416667,0.451363636,90.29,59,﻿64be4ccf6a3b58bca6f47378,58,X,First,20,24,M,0.32345312499999995,2560,100,6,0.165946969
54,15,I,I,0.093055556,0.451363636,90.29,58,﻿64be4ccf6a3b58bca6f47378,60,B,First,20,24,M,0.32345312499999995,2560,100,6,0.35830808000000003
54,25,N,I,0.204861111,0.630909091,78.2,100,﻿64be4ccf6a3b58bca6f47378,61,Y,First,20,24,M,0.32345312499999995,2560,100,6,0.42604798
54,3,N,I,0.094444444,0.235909091,97.87,12,﻿64be4ccf6a3b58bca6f47378,62,Y,First,20,24,M,0.32345312499999995,2560,100,6,0.141464647
54,1,I,I,0.132638889,0.2,98.47,2,﻿64be4ccf6a3b58bca6f47378,63,B,First,20,24,M,0.32345312499999995,2560,100,6,0.067361111
54,1,I,N,0.158333333,0.2,98.47,3,﻿64be4ccf6a3b58bca6f47378,64,X,First,20,24,M,0.32345312499999995,2560,100,6,0.04166666700000002
54,44,I,I,0.919444444,0.972045455,23.65,174,﻿64be4ccf6a3b58bca6f47378,65,B,First,20,24,M,0.32345312499999995,2560,100,6,0.05260101099999992
54,26,I,I,0.315277778,0.648863636,76.62,102,﻿64be4ccf6a3b58bca6f47378,66,B,First,20,24,M,0.32345312499999995,2560,100,6,0.33358585799999996
54,29,N,N,0.826388889,0.702727273,71.6,113,﻿64be4ccf6a3b58bca6f47378,67,A,First,20,24,M,0.32345312499999995,2560,100,6,-0.12366161599999992
54,21,N,N,0.397916667,0.559090909,83.77,81,﻿64be4ccf6a3b58bca6f47378,68,A,First,20,24,M,0.32345312499999995,2560,100,6,0.16117424200000002
54,2,I,I,0.172916667,0.217954545,98.2,6,﻿64be4ccf6a3b58bca6f47378,69,B,First,20,24,M,0.32345312499999995,2560,100,6,0.045037878
54,12,I,N,0.197222222,0.3975,92.82,47,﻿64be4ccf6a3b58bca6f47378,70,X,First,20,24,M,0.32345312499999995,2560,100,6,0.20027777800000002
54,20,N,I,0.210416667,0.541136364,85.04,80,﻿64be4ccf6a3b58bca6f47378,71,Y,First,20,24,M,0.32345312499999995,2560,100,6,0.330719697
54,41,N,I,0.84375,0.918181818,39.66,164,﻿64be4ccf6a3b58bca6f47378,72,Y,First,20,24,M,0.32345312499999995,2560,100,6,0.07443181799999998
54,32,N,N,0.903472222,0.756590909,65.73,125,﻿64be4ccf6a3b58bca6f47378,73,A,First,20,24,M,0.32345312499999995,2560,100,6,-0.14688131299999996
54,2,N,N,0.296527778,0.217954545,98.2,5,﻿64be4ccf6a3b58bca6f47378,74,A,First,20,24,M,0.32345312499999995,2560,100,6,-0.07857323300000002
54,24,I,N,0.564583333,0.612954545,79.66,95,﻿64be4ccf6a3b58bca6f47378,75,X,First,20,24,M,0.32345312499999995,2560,100,6,0.04837121200000005
54,6,N,I,0.240277778,0.289772727,96.58,24,﻿64be4ccf6a3b58bca6f47378,76,Y,First,20,24,M,0.32345312499999995,2560,100,6,0.04949494900000001
54,30,I,N,0.61875,0.720681818,69.76,119,﻿64be4ccf6a3b58bca6f47378,77,X,First,20,24,M,0.32345312499999995,2560,100,6,0.10193181799999995
54,22,I,I,0.334027778,0.577045455,82.45,86,﻿64be4ccf6a3b58bca6f47378,78,B,First,20,24,M,0.32345312499999995,2560,100,6,0.24301767700000004
54,13,I,N,NA,0.415454545,91.98,51,﻿64be4ccf6a3b58bca6f47378,79,X,First,20,24,M,0.32345312499999995,2560,100,6,NA
54,30,N,N,NA,0.720681818,69.76,117,﻿64be4ccf6a3b58bca6f47378,80,A,First,20,24,M,0.32345312499999995,2560,100,6,NA
54,42,I,I,0.684027778,0.936136364,35.25,166,﻿64be4ccf6a3b58bca6f47378,81,B,First,20,24,M,0.32345312499999995,2560,100,6,0.25210858599999997
54,34,I,I,0.336111111,0.7925,61.29,134,﻿64be4ccf6a3b58bca6f47378,82,B,First,20,24,M,0.32345312499999995,2560,100,6,0.45638888899999996
54,12,N,N,0.293055556,0.3975,92.82,45,﻿64be4ccf6a3b58bca6f47378,83,A,First,20,24,M,0.32345312499999995,2560,100,6,0.10444444400000003
54,25,I,N,0.26875,0.630909091,78.2,99,﻿64be4ccf6a3b58bca6f47378,84,X,First,20,24,M,0.32345312499999995,2560,100,6,0.36215909100000004
54,17,N,N,0.625,0.487272727,88.33,65,﻿64be4ccf6a3b58bca6f47378,85,A,First,20,24,M,0.32345312499999995,2560,100,6,-0.13772727299999998
54,25,I,I,NA,0.630909091,78.2,98,﻿64be4ccf6a3b58bca6f47378,86,B,First,20,24,M,0.32345312499999995,2560,100,6,NA
54,18,I,N,NA,0.505227273,87.36,71,﻿64be4ccf6a3b58bca6f47378,87,X,First,20,24,M,0.32345312499999995,2560,100,6,NA
54,5,I,N,0.213194444,0.271818182,96.99,19,﻿64be4ccf6a3b58bca6f47378,88,X,First,20,24,M,0.32345312499999995,2560,100,6,0.05862373800000001
54,44,N,N,0.935416667,0.972045455,23.65,173,﻿64be4ccf6a3b58bca6f47378,90,A,First,20,24,M,0.32345312499999995,2560,100,6,0.03662878799999991
54,18,I,I,0.249305556,0.505227273,87.36,70,﻿64be4ccf6a3b58bca6f47378,91,B,First,20,24,M,0.32345312499999995,2560,100,6,0.255921717
54,41,N,N,0.933333333,0.918181818,39.66,161,﻿64be4ccf6a3b58bca6f47378,92,A,First,20,24,M,0.32345312499999995,2560,100,6,-0.015151515000000004
54,6,I,N,NA,0.289772727,96.58,23,﻿64be4ccf6a3b58bca6f47378,93,X,Second,20,24,M,0.32345312499999995,2560,100,6,NA
54,40,I,I,NA,0.900227273,43.56,158,﻿64be4ccf6a3b58bca6f47378,94,B,Second,20,24,M,0.32345312499999995,2560,100,6,NA
54,27,I,N,0.280555556,0.666818182,75.05,107,﻿64be4ccf6a3b58bca6f47378,95,X,Second,20,24,M,0.32345312499999995,2560,100,6,0.386262626
54,22,N,N,0.670833333,0.577045455,82.45,85,﻿64be4ccf6a3b58bca6f47378,96,A,Second,20,24,M,0.32345312499999995,2560,100,6,-0.09378787799999999
54,19,I,N,0.343055556,0.523181818,86.21,75,﻿64be4ccf6a3b58bca6f47378,97,X,Second,20,24,M,0.32345312499999995,2560,100,6,0.18012626199999998
54,11,N,N,0.507638889,0.379545455,93.55,41,﻿64be4ccf6a3b58bca6f47378,98,A,Second,20,24,M,0.32345312499999995,2560,100,6,-0.128093434
54,7,N,N,NA,0.307727273,96.03,25,﻿64be4ccf6a3b58bca6f47378,99,A,Second,20,24,M,0.32345312499999995,2560,100,6,NA
54,17,N,I,NA,0.487272727,88.33,68,﻿64be4ccf6a3b58bca6f47378,100,Y,Second,20,24,M,0.32345312499999995,2560,100,6,NA
54,7,I,N,0.278472222,0.307727273,96.03,27,﻿64be4ccf6a3b58bca6f47378,101,X,Second,20,24,M,0.32345312499999995,2560,100,6,0.029255051000000032
54,16,I,N,0.286805556,0.469318182,89.4,63,﻿64be4ccf6a3b58bca6f47378,102,X,Second,20,24,M,0.32345312499999995,2560,100,6,0.18251262599999996
54,37,I,I,0.625,0.846363636,53.4,146,﻿64be4ccf6a3b58bca6f47378,103,B,Second,20,24,M,0.32345312499999995,2560,100,6,0.22136363599999997
54,8,N,I,0.242361111,0.325681818,95.52,32,﻿64be4ccf6a3b58bca6f47378,104,Y,Second,20,24,M,0.32345312499999995,2560,100,6,0.08332070700000002
54,31,N,I,NA,0.738636364,67.86,124,﻿64be4ccf6a3b58bca6f47378,105,Y,Second,20,24,M,0.32345312499999995,2560,100,6,NA
54,11,N,I,0.191666667,0.379545455,93.55,44,﻿64be4ccf6a3b58bca6f47378,106,Y,Second,20,24,M,0.32345312499999995,2560,100,6,0.18787878799999996
54,43,N,N,0.970138889,0.954090909,30.04,169,﻿64be4ccf6a3b58bca6f47378,107,A,Second,20,24,M,0.32345312499999995,2560,100,6,-0.01604797999999996
54,14,I,N,0.524305556,0.433409091,91.2,55,﻿64be4ccf6a3b58bca6f47378,108,X,Second,20,24,M,0.32345312499999995,2560,100,6,-0.09089646499999993
54,13,I,I,0.35625,0.415454545,91.98,50,﻿64be4ccf6a3b58bca6f47378,109,B,Second,20,24,M,0.32345312499999995,2560,100,6,0.059204545
54,40,N,I,0.840277778,0.900227273,43.56,160,﻿64be4ccf6a3b58bca6f47378,110,Y,Second,20,24,M,0.32345312499999995,2560,100,6,0.05994949500000002
54,45,N,N,0.975,0.99,14.13,177,﻿64be4ccf6a3b58bca6f47378,111,A,Second,20,24,M,0.32345312499999995,2560,100,6,0.015000000000000013
54,5,N,N,0.431944444,0.271818182,96.99,17,﻿64be4ccf6a3b58bca6f47378,112,A,Second,20,24,M,0.32345312499999995,2560,100,6,-0.16012626199999996
54,33,I,N,0.709027778,0.774545455,63.57,131,﻿64be4ccf6a3b58bca6f47378,114,X,Second,20,24,M,0.32345312499999995,2560,100,6,0.065517677
54,39,I,I,0.836805556,0.882272727,47.19,154,﻿64be4ccf6a3b58bca6f47378,115,B,Second,20,24,M,0.32345312499999995,2560,100,6,0.045467171000000084
54,45,I,N,0.9375,0.99,14.13,179,﻿64be4ccf6a3b58bca6f47378,116,X,Second,20,24,M,0.32345312499999995,2560,100,6,0.05249999999999999
54,33,N,I,0.836111111,0.774545455,63.57,132,﻿64be4ccf6a3b58bca6f47378,117,Y,Second,20,24,M,0.32345312499999995,2560,100,6,-0.06156565599999997
54,19,N,I,0.791666667,0.523181818,86.21,76,﻿64be4ccf6a3b58bca6f47378,118,Y,Second,20,24,M,0.32345312499999995,2560,100,6,-0.268484849
54,34,N,I,0.850694444,0.7925,61.29,136,﻿64be4ccf6a3b58bca6f47378,119,Y,Second,20,24,M,0.32345312499999995,2560,100,6,-0.05819444400000007
54,9,I,I,0.699305556,0.343636364,94.9,34,﻿64be4ccf6a3b58bca6f47378,120,B,Second,20,24,M,0.32345312499999995,2560,100,6,-0.35566919199999997
54,9,N,I,0.445833333,0.343636364,94.9,36,﻿64be4ccf6a3b58bca6f47378,121,Y,Second,20,24,M,0.32345312499999995,2560,100,6,-0.10219696899999997
54,43,I,I,0.825694444,0.954090909,30.04,170,﻿64be4ccf6a3b58bca6f47378,122,B,Second,20,24,M,0.32345312499999995,2560,100,6,0.12839646500000002
54,34,I,N,0.704166667,0.7925,61.29,135,﻿64be4ccf6a3b58bca6f47378,123,X,Second,20,24,M,0.32345312499999995,2560,100,6,0.08833333300000001
54,16,N,I,0.296527778,0.469318182,89.4,64,﻿64be4ccf6a3b58bca6f47378,124,Y,Second,20,24,M,0.32345312499999995,2560,100,6,0.17279040399999995
54,23,N,N,0.84375,0.595,81.13,89,﻿64be4ccf6a3b58bca6f47378,125,A,Second,20,24,M,0.32345312499999995,2560,100,6,-0.24875000000000003
54,10,I,I,0.695138889,0.361590909,94.23,38,﻿64be4ccf6a3b58bca6f47378,126,B,Second,20,24,M,0.32345312499999995,2560,100,6,-0.33354797999999997
54,5,I,I,0.61875,0.271818182,96.99,18,﻿64be4ccf6a3b58bca6f47378,127,B,Second,20,24,M,0.32345312499999995,2560,100,6,-0.346931818
54,10,I,N,0.598611111,0.361590909,94.23,39,﻿64be4ccf6a3b58bca6f47378,128,X,Second,20,24,M,0.32345312499999995,2560,100,6,-0.23702020199999996
54,4,I,N,0.610416667,0.253863636,97.45,15,﻿64be4ccf6a3b58bca6f47378,129,X,Second,20,24,M,0.32345312499999995,2560,100,6,-0.35655303099999996
54,36,N,I,0.893055556,0.828409091,56.22,144,﻿64be4ccf6a3b58bca6f47378,130,Y,Second,20,24,M,0.32345312499999995,2560,100,6,-0.06464646499999993
54,18,N,N,0.855555556,0.505227273,87.36,69,﻿64be4ccf6a3b58bca6f47378,131,A,Second,20,24,M,0.32345312499999995,2560,100,6,-0.35032828299999996
54,39,N,N,0.943055556,0.882272727,47.19,153,﻿64be4ccf6a3b58bca6f47378,132,A,Second,20,24,M,0.32345312499999995,2560,100,6,-0.06078282899999998
54,38,N,N,0.892361111,0.864318182,50.47,149,﻿64be4ccf6a3b58bca6f47378,133,A,Second,20,24,M,0.32345312499999995,2560,100,6,-0.02804292900000005
54,15,N,N,0.8125,0.451363636,90.29,57,﻿64be4ccf6a3b58bca6f47378,134,A,Second,20,24,M,0.32345312499999995,2560,100,6,-0.361136364
54,9,I,N,0.711805556,0.343636364,94.9,35,﻿64be4ccf6a3b58bca6f47378,135,X,Second,20,24,M,0.32345312499999995,2560,100,6,-0.3681691919999999
54,20,I,N,0.777777778,0.541136364,85.04,79,﻿64be4ccf6a3b58bca6f47378,136,X,Second,20,24,M,0.32345312499999995,2560,100,6,-0.23664141400000005
54,11,I,I,0.713888889,0.379545455,93.55,42,﻿64be4ccf6a3b58bca6f47378,137,B,Second,20,24,M,0.32345312499999995,2560,100,6,-0.33434343400000005
54,39,N,I,0.847222222,0.882272727,47.19,156,﻿64be4ccf6a3b58bca6f47378,138,Y,Second,20,24,M,0.32345312499999995,2560,100,6,0.035050505000000065
54,38,I,I,0.765972222,0.864318182,50.47,150,﻿64be4ccf6a3b58bca6f47378,139,B,Second,20,24,M,0.32345312499999995,2560,100,6,0.09834595999999995
54,2,N,I,0.252777778,0.217954545,98.2,8,﻿64be4ccf6a3b58bca6f47378,140,Y,Second,20,24,M,0.32345312499999995,2560,100,6,-0.03482323300000001
54,2,I,N,0.450694444,0.217954545,98.2,7,﻿64be4ccf6a3b58bca6f47378,141,X,Second,20,24,M,0.32345312499999995,2560,100,6,-0.23273989900000003
54,27,N,N,0.927083333,0.666818182,75.05,105,﻿64be4ccf6a3b58bca6f47378,142,A,Second,20,24,M,0.32345312499999995,2560,100,6,-0.26026515100000003
54,29,I,I,0.753472222,0.702727273,71.6,114,﻿64be4ccf6a3b58bca6f47378,143,B,Second,20,24,M,0.32345312499999995,2560,100,6,-0.05074494899999993
54,36,I,I,0.694444444,0.828409091,56.22,142,﻿64be4ccf6a3b58bca6f47378,144,B,Second,20,24,M,0.32345312499999995,2560,100,6,0.133964647
54,26,I,N,0.616666667,0.648863636,76.62,103,﻿64be4ccf6a3b58bca6f47378,145,X,Second,20,24,M,0.32345312499999995,2560,100,6,0.03219696900000002
54,44,I,N,0.970833333,0.972045455,23.65,175,﻿64be4ccf6a3b58bca6f47378,146,X,Second,20,24,M,0.32345312499999995,2560,100,6,0.0012121219999999822
54,36,N,N,0.905555556,0.828409091,56.22,141,﻿64be4ccf6a3b58bca6f47378,147,A,Second,20,24,M,0.32345312499999995,2560,100,6,-0.077146465
54,27,I,I,0.63125,0.666818182,75.05,106,﻿64be4ccf6a3b58bca6f47378,148,B,Second,20,24,M,0.32345312499999995,2560,100,6,0.035568182000000004
54,16,I,I,0.669444444,0.469318182,89.4,62,﻿64be4ccf6a3b58bca6f47378,149,B,Second,20,24,M,0.32345312499999995,2560,100,6,-0.20012626200000005
54,3,I,N,0.567361111,0.235909091,97.87,11,﻿64be4ccf6a3b58bca6f47378,150,X,Second,20,24,M,0.32345312499999995,2560,100,6,-0.33145201999999996
54,43,N,I,0.9625,0.954090909,30.04,172,﻿64be4ccf6a3b58bca6f47378,151,Y,Second,20,24,M,0.32345312499999995,2560,100,6,-0.00840909099999998
54,43,I,N,0.684027778,0.954090909,30.04,171,﻿64be4ccf6a3b58bca6f47378,152,X,Second,20,24,M,0.32345312499999995,2560,100,6,0.270063131
54,35,N,I,0.65625,0.810454545,58.87,140,﻿64be4ccf6a3b58bca6f47378,153,Y,Second,20,24,M,0.32345312499999995,2560,100,6,0.15420454500000003
54,24,I,I,0.247222222,0.612954545,79.66,94,﻿64be4ccf6a3b58bca6f47378,154,B,Second,20,24,M,0.32345312499999995,2560,100,6,0.365732323
54,31,I,N,0.307638889,0.738636364,67.86,123,﻿64be4ccf6a3b58bca6f47378,155,X,Second,20,24,M,0.32345312499999995,2560,100,6,0.43099747499999996
54,3,N,N,0.59375,0.235909091,97.87,9,﻿64be4ccf6a3b58bca6f47378,156,A,Second,20,24,M,0.32345312499999995,2560,100,6,-0.357840909
54,37,I,N,0.850694444,0.846363636,53.4,147,﻿64be4ccf6a3b58bca6f47378,157,X,Second,20,24,M,0.32345312499999995,2560,100,6,-0.004330808000000075
54,18,N,I,NA,0.505227273,87.36,72,﻿64be4ccf6a3b58bca6f47378,158,Y,Second,20,24,M,0.32345312499999995,2560,100,6,NA
54,4,I,I,0.45,0.253863636,97.45,14,﻿64be4ccf6a3b58bca6f47378,159,B,Second,20,24,M,0.32345312499999995,2560,100,6,-0.196136364
54,36,I,N,0.770833333,0.828409091,56.22,143,﻿64be4ccf6a3b58bca6f47378,160,X,Second,20,24,M,0.32345312499999995,2560,100,6,0.05757575800000003
54,8,I,N,0.254166667,0.325681818,95.52,31,﻿64be4ccf6a3b58bca6f47378,161,X,Second,20,24,M,0.32345312499999995,2560,100,6,0.071515151
54,6,N,N,0.518055556,0.289772727,96.58,21,﻿64be4ccf6a3b58bca6f47378,162,A,Second,20,24,M,0.32345312499999995,2560,100,6,-0.22828282899999996
54,32,N,I,0.718055556,0.756590909,65.73,128,﻿64be4ccf6a3b58bca6f47378,163,Y,Second,20,24,M,0.32345312499999995,2560,100,6,0.038535352999999994
54,30,N,I,0.651388889,0.720681818,69.76,120,﻿64be4ccf6a3b58bca6f47378,164,Y,Second,20,24,M,0.32345312499999995,2560,100,6,0.06929292899999995
54,35,I,N,0.606944444,0.810454545,58.87,139,﻿64be4ccf6a3b58bca6f47378,165,X,Second,20,24,M,0.32345312499999995,2560,100,6,0.203510101
54,16,N,N,0.840972222,0.469318182,89.4,61,﻿64be4ccf6a3b58bca6f47378,166,A,Second,20,24,M,0.32345312499999995,2560,100,6,-0.37165404
54,21,I,I,0.405555556,0.559090909,83.77,82,﻿64be4ccf6a3b58bca6f47378,167,B,Second,20,24,M,0.32345312499999995,2560,100,6,0.15353535300000004
54,1,N,N,0.486805556,0.2,98.47,1,﻿64be4ccf6a3b58bca6f47378,168,A,Second,20,24,M,0.32345312499999995,2560,100,6,-0.28680555599999996
54,20,N,N,0.703472222,0.541136364,85.04,77,﻿64be4ccf6a3b58bca6f47378,169,A,Second,20,24,M,0.32345312499999995,2560,100,6,-0.16233585800000006
54,17,I,I,0.279861111,0.487272727,88.33,66,﻿64be4ccf6a3b58bca6f47378,170,B,Second,20,24,M,0.32345312499999995,2560,100,6,0.20741161600000002
54,31,N,N,0.909722222,0.738636364,67.86,121,﻿64be4ccf6a3b58bca6f47378,171,A,Second,20,24,M,0.32345312499999995,2560,100,6,-0.17108585799999998
54,31,I,I,NA,0.738636364,67.86,122,﻿64be4ccf6a3b58bca6f47378,172,B,Second,20,24,M,0.32345312499999995,2560,100,6,NA
54,37,N,N,0.913194444,0.846363636,53.4,145,﻿64be4ccf6a3b58bca6f47378,173,A,Second,20,24,M,0.32345312499999995,2560,100,6,-0.06683080800000007
54,9,N,N,0.720138889,0.343636364,94.9,33,﻿64be4ccf6a3b58bca6f47378,175,A,Second,20,24,M,0.32345312499999995,2560,100,6,-0.376502525
54,45,N,I,0.911111111,0.99,14.13,180,﻿64be4ccf6a3b58bca6f47378,176,Y,Second,20,24,M,0.32345312499999995,2560,100,6,0.07888888900000002
54,6,I,I,0.147916667,0.289772727,96.58,22,﻿64be4ccf6a3b58bca6f47378,177,B,Second,20,24,M,0.32345312499999995,2560,100,6,0.14185606
54,1,N,I,NA,0.2,98.47,4,﻿64be4ccf6a3b58bca6f47378,179,Y,Second,20,24,M,0.32345312499999995,2560,100,6,NA
54,7,I,I,0.271527778,0.307727273,96.03,26,﻿64be4ccf6a3b58bca6f47378,180,B,Second,20,24,M,0.32345312499999995,2560,100,6,0.036199495000000026
54,33,N,N,NA,0.774545455,63.57,129,﻿64be4ccf6a3b58bca6f47378,181,A,Second,20,24,M,0.32345312499999995,2560,100,6,NA
54,21,I,N,0.386111111,0.559090909,83.77,83,﻿64be4ccf6a3b58bca6f47378,182,X,Second,20,24,M,0.32345312499999995,2560,100,6,0.17297979800000002
54,19,I,I,0.54375,0.523181818,86.21,74,﻿64be4ccf6a3b58bca6f47378,183,B,Second,20,24,M,0.32345312499999995,2560,100,6,-0.02056818199999999
54,35,I,I,NA,0.810454545,58.87,138,﻿64be4ccf6a3b58bca6f47378,184,B,Second,20,24,M,0.32345312499999995,2560,100,6,NA
54,42,I,N,NA,0.936136364,35.25,167,﻿64be4ccf6a3b58bca6f47378,185,X,Second,20,24,M,0.32345312499999995,2560,100,6,NA
89,35,I,I,0.440740741,0.810454545,58.87,138,﻿64be4cb55b19c41317321f83,0,B,First,20,26,F,0.34395833333333325,1920,100,6,0.36971380400000003
89,2,I,I,0.048148148,0.217954545,98.2,6,﻿64be4cb55b19c41317321f83,1,B,First,20,26,F,0.34395833333333325,1920,100,6,0.169806397
89,42,N,I,0.719444444,0.936136364,35.25,168,﻿64be4cb55b19c41317321f83,2,Y,First,20,26,F,0.34395833333333325,1920,100,6,0.21669192000000004
89,3,I,I,0.043518519,0.235909091,97.87,10,﻿64be4cb55b19c41317321f83,3,B,First,20,26,F,0.34395833333333325,1920,100,6,0.19239057199999998
89,4,N,I,0.02962963,0.253863636,97.45,16,﻿64be4cb55b19c41317321f83,4,Y,First,20,26,F,0.34395833333333325,1920,100,6,0.224234006
89,11,I,N,0.109259259,0.379545455,93.55,43,﻿64be4cb55b19c41317321f83,5,X,First,20,26,F,0.34395833333333325,1920,100,6,0.270286196
89,31,I,I,0.375925926,0.738636364,67.86,122,﻿64be4cb55b19c41317321f83,6,B,First,20,26,F,0.34395833333333325,1920,100,6,0.36271043799999997
89,42,I,N,0.839814815,0.936136364,35.25,167,﻿64be4cb55b19c41317321f83,7,X,First,20,26,F,0.34395833333333325,1920,100,6,0.096321549
89,15,N,I,0.362037037,0.451363636,90.29,60,﻿64be4cb55b19c41317321f83,8,Y,First,20,26,F,0.34395833333333325,1920,100,6,0.089326599
89,32,I,N,0.439814815,0.756590909,65.73,127,﻿64be4cb55b19c41317321f83,9,X,First,20,26,F,0.34395833333333325,1920,100,6,0.316776094
89,4,N,N,0.184259259,0.253863636,97.45,13,﻿64be4cb55b19c41317321f83,10,A,First,20,26,F,0.34395833333333325,1920,100,6,0.069604377
89,10,N,N,0.141666667,0.361590909,94.23,37,﻿64be4cb55b19c41317321f83,11,A,First,20,26,F,0.34395833333333325,1920,100,6,0.21992424200000002
89,6,N,N,0.105555556,0.289772727,96.58,21,﻿64be4cb55b19c41317321f83,12,A,First,20,26,F,0.34395833333333325,1920,100,6,0.184217171
89,35,N,I,0.328703704,0.810454545,58.87,140,﻿64be4cb55b19c41317321f83,13,Y,First,20,26,F,0.34395833333333325,1920,100,6,0.48175084100000004
89,25,I,N,0.243518519,0.630909091,78.2,99,﻿64be4cb55b19c41317321f83,14,X,First,20,26,F,0.34395833333333325,1920,100,6,0.38739057200000004
89,15,I,I,0.152777778,0.451363636,90.29,58,﻿64be4cb55b19c41317321f83,15,B,First,20,26,F,0.34395833333333325,1920,100,6,0.29858585800000004
89,28,N,I,0.292592593,0.684772727,73.36,112,﻿64be4cb55b19c41317321f83,16,Y,First,20,26,F,0.34395833333333325,1920,100,6,0.392180134
89,24,I,I,0.280555556,0.612954545,79.66,94,﻿64be4cb55b19c41317321f83,17,B,First,20,26,F,0.34395833333333325,1920,100,6,0.33239898900000003
89,41,N,I,0.652777778,0.918181818,39.66,164,﻿64be4cb55b19c41317321f83,18,Y,First,20,26,F,0.34395833333333325,1920,100,6,0.26540403999999995
89,13,I,N,0.187962963,0.415454545,91.98,51,﻿64be4cb55b19c41317321f83,19,X,First,20,26,F,0.34395833333333325,1920,100,6,0.227491582
89,23,N,N,0.630555556,0.595,81.13,89,﻿64be4cb55b19c41317321f83,20,A,First,20,26,F,0.34395833333333325,1920,100,6,-0.035555556000000044
89,18,I,I,0.177777778,0.505227273,87.36,70,﻿64be4cb55b19c41317321f83,21,B,First,20,26,F,0.34395833333333325,1920,100,6,0.32744949500000003
89,37,N,I,0.55648148099999994,0.846363636,53.4,148,﻿64be4cb55b19c41317321f83,22,Y,First,20,26,F,0.34395833333333325,1920,100,6,0.28988215500000003
89,38,I,N,0.623148148,0.864318182,50.47,151,﻿64be4cb55b19c41317321f83,23,X,First,20,26,F,0.34395833333333325,1920,100,6,0.24117003400000003
89,29,N,I,0.488888889,0.702727273,71.6,116,﻿64be4cb55b19c41317321f83,24,Y,First,20,26,F,0.34395833333333325,1920,100,6,0.21383838400000005
89,30,I,N,0.537037037,0.720681818,69.76,119,﻿64be4cb55b19c41317321f83,25,X,First,20,26,F,0.34395833333333325,1920,100,6,0.18364478099999992
89,1,N,I,0.05462963,0.2,98.47,4,﻿64be4cb55b19c41317321f83,26,Y,First,20,26,F,0.34395833333333325,1920,100,6,0.14537037000000003
89,9,N,N,0.152777778,0.343636364,94.9,33,﻿64be4cb55b19c41317321f83,27,A,First,20,26,F,0.34395833333333325,1920,100,6,0.19085858600000002
89,3,N,N,0.171296296,0.235909091,97.87,9,﻿64be4cb55b19c41317321f83,28,A,First,20,26,F,0.34395833333333325,1920,100,6,0.064612795
89,17,I,N,0.042592593,0.487272727,88.33,67,﻿64be4cb55b19c41317321f83,29,X,First,20,26,F,0.34395833333333325,1920,100,6,0.444680134
89,45,I,N,0.938888889,0.99,14.13,179,﻿64be4cb55b19c41317321f83,30,X,First,20,26,F,0.34395833333333325,1920,100,6,0.05111111099999999
89,35,I,N,0.537962963,0.810454545,58.87,139,﻿64be4cb55b19c41317321f83,31,X,First,20,26,F,0.34395833333333325,1920,100,6,0.272491582
89,6,I,I,0.037962963,0.289772727,96.58,22,﻿64be4cb55b19c41317321f83,32,B,First,20,26,F,0.34395833333333325,1920,100,6,0.251809764
89,1,I,I,0,0.2,98.47,2,﻿64be4cb55b19c41317321f83,33,B,First,20,26,F,0.34395833333333325,1920,100,6,0.2
89,10,I,N,0.021296296,0.361590909,94.23,39,﻿64be4cb55b19c41317321f83,34,X,First,20,26,F,0.34395833333333325,1920,100,6,0.340294613
89,2,N,I,0.021296296,0.217954545,98.2,8,﻿64be4cb55b19c41317321f83,35,Y,First,20,26,F,0.34395833333333325,1920,100,6,0.196658249
89,40,I,N,0.386111111,0.900227273,43.56,159,﻿64be4cb55b19c41317321f83,36,X,First,20,26,F,0.34395833333333325,1920,100,6,0.5141161620000001
89,22,I,N,0.283333333,0.577045455,82.45,87,﻿64be4cb55b19c41317321f83,37,X,First,20,26,F,0.34395833333333325,1920,100,6,0.293712122
89,18,N,I,0.111111111,0.505227273,87.36,72,﻿64be4cb55b19c41317321f83,38,Y,First,20,26,F,0.34395833333333325,1920,100,6,0.39411616200000005
89,17,N,I,0.155555556,0.487272727,88.33,68,﻿64be4cb55b19c41317321f83,39,Y,First,20,26,F,0.34395833333333325,1920,100,6,0.331717171
89,33,I,I,0.294444444,0.774545455,63.57,130,﻿64be4cb55b19c41317321f83,40,B,First,20,26,F,0.34395833333333325,1920,100,6,0.480101011
89,11,I,I,0.076851852,0.379545455,93.55,42,﻿64be4cb55b19c41317321f83,41,B,First,20,26,F,0.34395833333333325,1920,100,6,0.302693603
89,12,N,N,0.056481481,0.3975,92.82,45,﻿64be4cb55b19c41317321f83,42,A,First,20,26,F,0.34395833333333325,1920,100,6,0.341018519
89,24,N,I,0.125925926,0.612954545,79.66,96,﻿64be4cb55b19c41317321f83,43,Y,First,20,26,F,0.34395833333333325,1920,100,6,0.48702861900000005
89,28,I,I,0.071296296,0.684772727,73.36,110,﻿64be4cb55b19c41317321f83,44,B,First,20,26,F,0.34395833333333325,1920,100,6,0.613476431
89,29,I,N,0.259259259,0.702727273,71.6,115,﻿64be4cb55b19c41317321f83,45,X,First,20,26,F,0.34395833333333325,1920,100,6,0.443468014
89,14,N,N,0.237037037,0.433409091,91.2,53,﻿64be4cb55b19c41317321f83,46,A,First,20,26,F,0.34395833333333325,1920,100,6,0.19637205400000002
89,34,N,N,0.643518519,0.7925,61.29,133,﻿64be4cb55b19c41317321f83,47,A,First,20,26,F,0.34395833333333325,1920,100,6,0.14898148099999997
89,31,N,N,0.685185185,0.738636364,67.86,121,﻿64be4cb55b19c41317321f83,48,A,First,20,26,F,0.34395833333333325,1920,100,6,0.05345117899999996
89,42,N,N,0.8,0.936136364,35.25,165,﻿64be4cb55b19c41317321f83,49,A,First,20,26,F,0.34395833333333325,1920,100,6,0.13613636399999995
89,41,I,I,0.647222222,0.918181818,39.66,162,﻿64be4cb55b19c41317321f83,50,B,First,20,26,F,0.34395833333333325,1920,100,6,0.27095959599999997
89,20,N,N,0.415740741,0.541136364,85.04,77,﻿64be4cb55b19c41317321f83,51,A,First,20,26,F,0.34395833333333325,1920,100,6,0.12539562299999996
89,32,N,I,0.300925926,0.756590909,65.73,128,﻿64be4cb55b19c41317321f83,52,Y,First,20,26,F,0.34395833333333325,1920,100,6,0.455664983
89,10,N,I,0.106481481,0.361590909,94.23,40,﻿64be4cb55b19c41317321f83,54,Y,First,20,26,F,0.34395833333333325,1920,100,6,0.255109428
89,17,I,I,0.02037037,0.487272727,88.33,66,﻿64be4cb55b19c41317321f83,55,B,First,20,26,F,0.34395833333333325,1920,100,6,0.46690235700000005
89,19,N,I,0.04537037,0.523181818,86.21,76,﻿64be4cb55b19c41317321f83,56,Y,First,20,26,F,0.34395833333333325,1920,100,6,0.47781144799999997
89,33,N,N,0.682407407,0.774545455,63.57,129,﻿64be4cb55b19c41317321f83,58,A,First,20,26,F,0.34395833333333325,1920,100,6,0.09213804800000003
89,36,N,N,0.780555556,0.828409091,56.22,141,﻿64be4cb55b19c41317321f83,59,A,First,20,26,F,0.34395833333333325,1920,100,6,0.047853535
89,21,I,I,0.273148148,0.559090909,83.77,82,﻿64be4cb55b19c41317321f83,60,B,First,20,26,F,0.34395833333333325,1920,100,6,0.28594276100000005
89,27,N,N,0.774074074,0.666818182,75.05,105,﻿64be4cb55b19c41317321f83,61,A,First,20,26,F,0.34395833333333325,1920,100,6,-0.10725589199999996
89,10,I,I,0.053703704,0.361590909,94.23,38,﻿64be4cb55b19c41317321f83,62,B,First,20,26,F,0.34395833333333325,1920,100,6,0.307887205
89,23,I,I,0.110185185,0.595,81.13,90,﻿64be4cb55b19c41317321f83,63,B,First,20,26,F,0.34395833333333325,1920,100,6,0.48481481499999995
89,36,I,I,0.267592593,0.828409091,56.22,142,﻿64be4cb55b19c41317321f83,64,B,First,20,26,F,0.34395833333333325,1920,100,6,0.5608164980000001
89,38,N,N,0.77962963,0.864318182,50.47,149,﻿64be4cb55b19c41317321f83,65,A,First,20,26,F,0.34395833333333325,1920,100,6,0.08468855200000003
89,3,N,I,0.046296296,0.235909091,97.87,12,﻿64be4cb55b19c41317321f83,66,Y,First,20,26,F,0.34395833333333325,1920,100,6,0.189612795
89,16,I,N,0.078703704,0.469318182,89.4,63,﻿64be4cb55b19c41317321f83,67,X,First,20,26,F,0.34395833333333325,1920,100,6,0.390614478
89,13,N,N,0.355555556,0.415454545,91.98,49,﻿64be4cb55b19c41317321f83,68,A,First,20,26,F,0.34395833333333325,1920,100,6,0.059898989000000014
89,3,I,N,0.07037037,0.235909091,97.87,11,﻿64be4cb55b19c41317321f83,69,X,First,20,26,F,0.34395833333333325,1920,100,6,0.165538721
89,28,N,N,0.810185185,0.684772727,73.36,109,﻿64be4cb55b19c41317321f83,71,A,First,20,26,F,0.34395833333333325,1920,100,6,-0.125412458
89,23,N,I,0.62962963,0.595,81.13,92,﻿64be4cb55b19c41317321f83,72,Y,First,20,26,F,0.34395833333333325,1920,100,6,-0.03462963000000008
89,34,I,N,0.492592593,0.7925,61.29,135,﻿64be4cb55b19c41317321f83,73,X,First,20,26,F,0.34395833333333325,1920,100,6,0.29990740699999996
89,5,I,I,0.164814815,0.271818182,96.99,18,﻿64be4cb55b19c41317321f83,74,B,First,20,26,F,0.34395833333333325,1920,100,6,0.10700336700000002
89,36,N,I,0.39537037,0.828409091,56.22,144,﻿64be4cb55b19c41317321f83,75,Y,First,20,26,F,0.34395833333333325,1920,100,6,0.433038721
89,26,N,I,0.440740741,0.648863636,76.62,104,﻿64be4cb55b19c41317321f83,76,Y,First,20,26,F,0.34395833333333325,1920,100,6,0.20812289499999997
89,31,N,I,0.437962963,0.738636364,67.86,124,﻿64be4cb55b19c41317321f83,77,Y,First,20,26,F,0.34395833333333325,1920,100,6,0.300673401
89,16,N,I,0.425925926,0.469318182,89.4,64,﻿64be4cb55b19c41317321f83,79,Y,First,20,26,F,0.34395833333333325,1920,100,6,0.04339225599999996
89,41,N,N,0.9,0.918181818,39.66,161,﻿64be4cb55b19c41317321f83,81,A,First,20,26,F,0.34395833333333325,1920,100,6,0.01818181799999996
89,35,N,N,0.928703704,0.810454545,58.87,137,﻿64be4cb55b19c41317321f83,82,A,First,20,26,F,0.34395833333333325,1920,100,6,-0.11824915899999999
89,32,I,I,0.425,0.756590909,65.73,126,﻿64be4cb55b19c41317321f83,83,B,First,20,26,F,0.34395833333333325,1920,100,6,0.33159090900000004
89,43,N,N,0.876851852,0.954090909,30.04,169,﻿64be4cb55b19c41317321f83,84,A,First,20,26,F,0.34395833333333325,1920,100,6,0.077239057
89,4,I,N,0.107407407,0.253863636,97.45,15,﻿64be4cb55b19c41317321f83,85,X,First,20,26,F,0.34395833333333325,1920,100,6,0.146456229
89,25,N,N,0.68148148099999994,0.630909091,78.2,97,﻿64be4cb55b19c41317321f83,86,A,First,20,26,F,0.34395833333333325,1920,100,6,-0.05057238999999991
89,26,I,N,0.185185185,0.648863636,76.62,103,﻿64be4cb55b19c41317321f83,87,X,First,20,26,F,0.34395833333333325,1920,100,6,0.46367845099999994
89,39,I,N,0.631481481,0.882272727,47.19,155,﻿64be4cb55b19c41317321f83,88,X,First,20,26,F,0.34395833333333325,1920,100,6,0.250791246
89,18,I,N,0.110185185,0.505227273,87.36,71,﻿64be4cb55b19c41317321f83,89,X,First,20,26,F,0.34395833333333325,1920,100,6,0.395042088
89,17,N,N,0.212962963,0.487272727,88.33,65,﻿64be4cb55b19c41317321f83,90,A,First,20,26,F,0.34395833333333325,1920,100,6,0.274309764
89,1,I,N,0.034259259,0.2,98.47,3,﻿64be4cb55b19c41317321f83,91,X,First,20,26,F,0.34395833333333325,1920,100,6,0.16574074100000002
89,7,I,I,0.039814815,0.307727273,96.03,26,﻿64be4cb55b19c41317321f83,92,B,First,20,26,F,0.34395833333333325,1920,100,6,0.267912458
89,20,I,N,0.052777778,0.541136364,85.04,79,﻿64be4cb55b19c41317321f83,93,X,Second,20,26,F,0.34395833333333325,1920,100,6,0.488358586
89,43,N,I,0.608333333,0.954090909,30.04,172,﻿64be4cb55b19c41317321f83,94,Y,Second,20,26,F,0.34395833333333325,1920,100,6,0.345757576
89,16,I,I,0.300925926,0.469318182,89.4,62,﻿64be4cb55b19c41317321f83,95,B,Second,20,26,F,0.34395833333333325,1920,100,6,0.16839225599999996
89,21,N,I,0.113888889,0.559090909,83.77,84,﻿64be4cb55b19c41317321f83,96,Y,Second,20,26,F,0.34395833333333325,1920,100,6,0.44520202000000003
89,8,I,N,0.051851852,0.325681818,95.52,31,﻿64be4cb55b19c41317321f83,97,X,Second,20,26,F,0.34395833333333325,1920,100,6,0.27382996600000004
89,44,I,I,0.068518519,0.972045455,23.65,174,﻿64be4cb55b19c41317321f83,98,B,Second,20,26,F,0.34395833333333325,1920,100,6,0.903526936
89,5,I,N,0.036111111,0.271818182,96.99,19,﻿64be4cb55b19c41317321f83,99,X,Second,20,26,F,0.34395833333333325,1920,100,6,0.23570707100000002
89,30,I,I,0.093518519,0.720681818,69.76,118,﻿64be4cb55b19c41317321f83,100,B,Second,20,26,F,0.34395833333333325,1920,100,6,0.627163299
89,5,N,N,0.35,0.271818182,96.99,17,﻿64be4cb55b19c41317321f83,101,A,Second,20,26,F,0.34395833333333325,1920,100,6,-0.07818181799999996
89,27,N,I,0.491666667,0.666818182,75.05,108,﻿64be4cb55b19c41317321f83,102,Y,Second,20,26,F,0.34395833333333325,1920,100,6,0.17515151499999998
89,44,I,N,0.850925926,0.972045455,23.65,175,﻿64be4cb55b19c41317321f83,103,X,Second,20,26,F,0.34395833333333325,1920,100,6,0.12111952899999989
89,29,I,I,0.380555556,0.702727273,71.6,114,﻿64be4cb55b19c41317321f83,104,B,Second,20,26,F,0.34395833333333325,1920,100,6,0.322171717
89,38,I,I,0.29537037,0.864318182,50.47,150,﻿64be4cb55b19c41317321f83,105,B,Second,20,26,F,0.34395833333333325,1920,100,6,0.568947812
89,9,I,I,0.07037037,0.343636364,94.9,34,﻿64be4cb55b19c41317321f83,106,B,Second,20,26,F,0.34395833333333325,1920,100,6,0.273265994
89,13,I,I,0.067592593,0.415454545,91.98,50,﻿64be4cb55b19c41317321f83,107,B,Second,20,26,F,0.34395833333333325,1920,100,6,0.34786195200000003
89,24,I,N,0.112037037,0.612954545,79.66,95,﻿64be4cb55b19c41317321f83,108,X,Second,20,26,F,0.34395833333333325,1920,100,6,0.500917508
89,37,I,I,0.249074074,0.846363636,53.4,146,﻿64be4cb55b19c41317321f83,110,B,Second,20,26,F,0.34395833333333325,1920,100,6,0.5972895619999999
89,21,N,N,0.566666667,0.559090909,83.77,81,﻿64be4cb55b19c41317321f83,111,A,Second,20,26,F,0.34395833333333325,1920,100,6,-0.007575757999999988
89,24,N,N,0.621296296,0.612954545,79.66,93,﻿64be4cb55b19c41317321f83,112,A,Second,20,26,F,0.34395833333333325,1920,100,6,-0.008341751000000008
89,7,I,N,0.14537037,0.307727273,96.03,27,﻿64be4cb55b19c41317321f83,113,X,Second,20,26,F,0.34395833333333325,1920,100,6,0.16235690300000002
89,30,N,N,0.533333333,0.720681818,69.76,117,﻿64be4cb55b19c41317321f83,114,A,Second,20,26,F,0.34395833333333325,1920,100,6,0.187348485
89,32,N,N,0.585185185,0.756590909,65.73,125,﻿64be4cb55b19c41317321f83,115,A,Second,20,26,F,0.34395833333333325,1920,100,6,0.17140572399999998
89,1,N,N,0.452777778,0.2,98.47,1,﻿64be4cb55b19c41317321f83,116,A,Second,20,26,F,0.34395833333333325,1920,100,6,-0.252777778
89,25,N,I,0.332407407,0.630909091,78.2,100,﻿64be4cb55b19c41317321f83,117,Y,Second,20,26,F,0.34395833333333325,1920,100,6,0.29850168400000004
89,4,I,I,0.180555556,0.253863636,97.45,14,﻿64be4cb55b19c41317321f83,118,B,Second,20,26,F,0.34395833333333325,1920,100,6,0.07330808
89,13,N,I,0.168518519,0.415454545,91.98,52,﻿64be4cb55b19c41317321f83,119,Y,Second,20,26,F,0.34395833333333325,1920,100,6,0.246936026
89,34,I,I,0.137962963,0.7925,61.29,134,﻿64be4cb55b19c41317321f83,120,B,Second,20,26,F,0.34395833333333325,1920,100,6,0.654537037
89,6,N,I,0.167592593,0.289772727,96.58,24,﻿64be4cb55b19c41317321f83,121,Y,Second,20,26,F,0.34395833333333325,1920,100,6,0.122180134
89,5,N,I,0.160185185,0.271818182,96.99,20,﻿64be4cb55b19c41317321f83,122,Y,Second,20,26,F,0.34395833333333325,1920,100,6,0.11163299700000001
89,12,I,N,0.160185185,0.3975,92.82,47,﻿64be4cb55b19c41317321f83,123,X,Second,20,26,F,0.34395833333333325,1920,100,6,0.237314815
89,28,I,N,0.198148148,0.684772727,73.36,111,﻿64be4cb55b19c41317321f83,124,X,Second,20,26,F,0.34395833333333325,1920,100,6,0.486624579
89,36,I,N,0.338888889,0.828409091,56.22,143,﻿64be4cb55b19c41317321f83,125,X,Second,20,26,F,0.34395833333333325,1920,100,6,0.489520202
89,12,N,I,0.186111111,0.3975,92.82,48,﻿64be4cb55b19c41317321f83,126,Y,Second,20,26,F,0.34395833333333325,1920,100,6,0.21138888900000002
89,40,N,N,0.748148148,0.900227273,43.56,157,﻿64be4cb55b19c41317321f83,127,A,Second,20,26,F,0.34395833333333325,1920,100,6,0.1520791250000001
89,18,N,N,0.449074074,0.505227273,87.36,69,﻿64be4cb55b19c41317321f83,128,A,Second,20,26,F,0.34395833333333325,1920,100,6,0.05615319900000004
89,39,I,I,0.323148148,0.882272727,47.19,154,﻿64be4cb55b19c41317321f83,129,B,Second,20,26,F,0.34395833333333325,1920,100,6,0.559124579
89,21,I,N,0.111111111,0.559090909,83.77,83,﻿64be4cb55b19c41317321f83,130,X,Second,20,26,F,0.34395833333333325,1920,100,6,0.44797979800000004
89,9,I,N,0.04537037,0.343636364,94.9,35,﻿64be4cb55b19c41317321f83,131,X,Second,20,26,F,0.34395833333333325,1920,100,6,0.29826599400000003
89,15,I,N,0.065740741,0.451363636,90.29,59,﻿64be4cb55b19c41317321f83,132,X,Second,20,26,F,0.34395833333333325,1920,100,6,0.385622895
89,14,I,I,0.111111111,0.433409091,91.2,54,﻿64be4cb55b19c41317321f83,133,B,Second,20,26,F,0.34395833333333325,1920,100,6,0.32229798000000004
89,45,N,N,0.862037037,0.99,14.13,177,﻿64be4cb55b19c41317321f83,134,A,Second,20,26,F,0.34395833333333325,1920,100,6,0.12796296299999999
89,19,N,N,0.253703704,0.523181818,86.21,73,﻿64be4cb55b19c41317321f83,135,A,Second,20,26,F,0.34395833333333325,1920,100,6,0.269478114
89,38,N,I,0.390740741,0.864318182,50.47,152,﻿64be4cb55b19c41317321f83,136,Y,Second,20,26,F,0.34395833333333325,1920,100,6,0.473577441
89,20,N,I,0.20462963,0.541136364,85.04,80,﻿64be4cb55b19c41317321f83,137,Y,Second,20,26,F,0.34395833333333325,1920,100,6,0.336506734
89,9,N,I,0.149074074,0.343636364,94.9,36,﻿64be4cb55b19c41317321f83,138,Y,Second,20,26,F,0.34395833333333325,1920,100,6,0.19456229000000003
89,12,I,I,0.187037037,0.3975,92.82,46,﻿64be4cb55b19c41317321f83,139,B,Second,20,26,F,0.34395833333333325,1920,100,6,0.21046296300000003
89,7,N,I,0.12037037,0.307727273,96.03,28,﻿64be4cb55b19c41317321f83,140,Y,Second,20,26,F,0.34395833333333325,1920,100,6,0.18735690300000002
89,8,I,I,0.207407407,0.325681818,95.52,30,﻿64be4cb55b19c41317321f83,141,B,Second,20,26,F,0.34395833333333325,1920,100,6,0.11827441100000002
89,37,N,N,0.708333333,0.846363636,53.4,145,﻿64be4cb55b19c41317321f83,142,A,Second,20,26,F,0.34395833333333325,1920,100,6,0.13803030299999997
89,29,N,N,0.68148148099999994,0.702727273,71.6,113,﻿64be4cb55b19c41317321f83,143,A,Second,20,26,F,0.34395833333333325,1920,100,6,0.021245792000000097
89,22,N,I,0.569444444,0.577045455,82.45,88,﻿64be4cb55b19c41317321f83,144,Y,Second,20,26,F,0.34395833333333325,1920,100,6,0.007601010999999991
89,44,N,I,0.687037037,0.972045455,23.65,176,﻿64be4cb55b19c41317321f83,145,Y,Second,20,26,F,0.34395833333333325,1920,100,6,0.285008418
89,27,I,I,0.40462963,0.666818182,75.05,106,﻿64be4cb55b19c41317321f83,146,B,Second,20,26,F,0.34395833333333325,1920,100,6,0.26218855199999996
89,30,N,I,0.355555556,0.720681818,69.76,120,﻿64be4cb55b19c41317321f83,147,Y,Second,20,26,F,0.34395833333333325,1920,100,6,0.365126262
89,43,I,N,0.676851852,0.954090909,30.04,171,﻿64be4cb55b19c41317321f83,148,X,Second,20,26,F,0.34395833333333325,1920,100,6,0.27723905700000007
89,8,N,N,0.590740741,0.325681818,95.52,29,﻿64be4cb55b19c41317321f83,149,A,Second,20,26,F,0.34395833333333325,1920,100,6,-0.26505892299999995
89,45,I,I,0.714814815,0.99,14.13,178,﻿64be4cb55b19c41317321f83,150,B,Second,20,26,F,0.34395833333333325,1920,100,6,0.275185185
89,8,N,I,0.227777778,0.325681818,95.52,32,﻿64be4cb55b19c41317321f83,151,Y,Second,20,26,F,0.34395833333333325,1920,100,6,0.09790404000000003
89,2,I,N,0.209259259,0.217954545,98.2,7,﻿64be4cb55b19c41317321f83,152,X,Second,20,26,F,0.34395833333333325,1920,100,6,0.008695285999999997
89,20,I,I,0.226851852,0.541136364,85.04,78,﻿64be4cb55b19c41317321f83,153,B,Second,20,26,F,0.34395833333333325,1920,100,6,0.31428451199999996
89,22,I,I,0.237037037,0.577045455,82.45,86,﻿64be4cb55b19c41317321f83,154,B,Second,20,26,F,0.34395833333333325,1920,100,6,0.34000841800000003
89,40,I,I,0.371296296,0.900227273,43.56,158,﻿64be4cb55b19c41317321f83,155,B,Second,20,26,F,0.34395833333333325,1920,100,6,0.528930977
89,34,N,I,0.613888889,0.7925,61.29,136,﻿64be4cb55b19c41317321f83,156,Y,Second,20,26,F,0.34395833333333325,1920,100,6,0.17861111099999993
89,26,I,I,0.34537037,0.648863636,76.62,102,﻿64be4cb55b19c41317321f83,157,B,Second,20,26,F,0.34395833333333325,1920,100,6,0.303493266
89,25,I,I,0.451851852,0.630909091,78.2,98,﻿64be4cb55b19c41317321f83,158,B,Second,20,26,F,0.34395833333333325,1920,100,6,0.17905723900000003
89,33,N,I,0.524074074,0.774545455,63.57,132,﻿64be4cb55b19c41317321f83,159,Y,Second,20,26,F,0.34395833333333325,1920,100,6,0.2504713810000001
89,15,N,N,0.637037037,0.451363636,90.29,57,﻿64be4cb55b19c41317321f83,160,A,Second,20,26,F,0.34395833333333325,1920,100,6,-0.18567340100000002
89,40,N,I,0.622222222,0.900227273,43.56,160,﻿64be4cb55b19c41317321f83,161,Y,Second,20,26,F,0.34395833333333325,1920,100,6,0.27800505100000006
89,39,N,N,0.725925926,0.882272727,47.19,153,﻿64be4cb55b19c41317321f83,162,A,Second,20,26,F,0.34395833333333325,1920,100,6,0.15634680099999998
89,6,I,N,0.175,0.289772727,96.58,23,﻿64be4cb55b19c41317321f83,163,X,Second,20,26,F,0.34395833333333325,1920,100,6,0.11477272700000002
89,7,N,N,0.442592593,0.307727273,96.03,25,﻿64be4cb55b19c41317321f83,164,A,Second,20,26,F,0.34395833333333325,1920,100,6,-0.13486531999999996
89,26,N,N,0.57962963,0.648863636,76.62,101,﻿64be4cb55b19c41317321f83,165,A,Second,20,26,F,0.34395833333333325,1920,100,6,0.06923400599999996
89,31,I,N,0.437962963,0.738636364,67.86,123,﻿64be4cb55b19c41317321f83,166,X,Second,20,26,F,0.34395833333333325,1920,100,6,0.300673401
89,14,N,I,0.596296296,0.433409091,91.2,56,﻿64be4cb55b19c41317321f83,167,Y,Second,20,26,F,0.34395833333333325,1920,100,6,-0.16288720499999998
89,16,N,N,0.627777778,0.469318182,89.4,61,﻿64be4cb55b19c41317321f83,168,A,Second,20,26,F,0.34395833333333325,1920,100,6,-0.15845959600000004
89,33,I,N,0.631481481,0.774545455,63.57,131,﻿64be4cb55b19c41317321f83,169,X,Second,20,26,F,0.34395833333333325,1920,100,6,0.14306397400000004
89,11,N,I,0.368518519,0.379545455,93.55,44,﻿64be4cb55b19c41317321f83,170,Y,Second,20,26,F,0.34395833333333325,1920,100,6,0.011026935999999987
89,27,I,N,0.271296296,0.666818182,75.05,107,﻿64be4cb55b19c41317321f83,171,X,Second,20,26,F,0.34395833333333325,1920,100,6,0.395521886
89,44,N,N,0.678703704,0.972045455,23.65,173,﻿64be4cb55b19c41317321f83,172,A,Second,20,26,F,0.34395833333333325,1920,100,6,0.29334175099999993
89,41,I,N,0.60462963,0.918181818,39.66,163,﻿64be4cb55b19c41317321f83,173,X,Second,20,26,F,0.34395833333333325,1920,100,6,0.31355218799999995
89,42,I,I,0.514814815,0.936136364,35.25,166,﻿64be4cb55b19c41317321f83,174,B,Second,20,26,F,0.34395833333333325,1920,100,6,0.42132154899999996
89,37,I,N,0.532407407,0.846363636,53.4,147,﻿64be4cb55b19c41317321f83,175,X,Second,20,26,F,0.34395833333333325,1920,100,6,0.313956229
89,11,N,N,0.403703704,0.379545455,93.55,41,﻿64be4cb55b19c41317321f83,176,A,Second,20,26,F,0.34395833333333325,1920,100,6,-0.02415824900000002
89,14,I,N,0.309259259,0.433409091,91.2,55,﻿64be4cb55b19c41317321f83,177,X,Second,20,26,F,0.34395833333333325,1920,100,6,0.12414983200000002
89,43,I,I,0.427777778,0.954090909,30.04,170,﻿64be4cb55b19c41317321f83,178,B,Second,20,26,F,0.34395833333333325,1920,100,6,0.526313131
89,45,N,I,0.598148148,0.99,14.13,180,﻿64be4cb55b19c41317321f83,179,Y,Second,20,26,F,0.34395833333333325,1920,100,6,0.39185185199999994
89,23,I,N,0.440740741,0.595,81.13,91,﻿64be4cb55b19c41317321f83,180,X,Second,20,26,F,0.34395833333333325,1920,100,6,0.15425925899999998
89,2,N,N,0.418518519,0.217954545,98.2,5,﻿64be4cb55b19c41317321f83,181,A,Second,20,26,F,0.34395833333333325,1920,100,6,-0.20056397399999998
89,19,I,I,0.355555556,0.523181818,86.21,74,﻿64be4cb55b19c41317321f83,182,B,Second,20,26,F,0.34395833333333325,1920,100,6,0.16762626199999997
89,39,N,I,0.590740741,0.882272727,47.19,156,﻿64be4cb55b19c41317321f83,183,Y,Second,20,26,F,0.34395833333333325,1920,100,6,0.2915319860000001
89,22,N,N,0.537962963,0.577045455,82.45,85,﻿64be4cb55b19c41317321f83,184,A,Second,20,26,F,0.34395833333333325,1920,100,6,0.039082492000000024
89,19,I,N,0.236111111,0.523181818,86.21,75,﻿64be4cb55b19c41317321f83,185,X,Second,20,26,F,0.34395833333333325,1920,100,6,0.2870707069999999
42,20,I,N,0.277070313,0.541136364,85.04,79,﻿64be4cc005892d8365570c22,0,X,First,25,28,F,0.31397222222222226,1440,100,6,0.26406605099999997
42,35,N,I,0.748376736,0.810454545,58.87,140,﻿64be4cc005892d8365570c22,1,Y,First,25,28,F,0.31397222222222226,1440,100,6,0.06207780900000004
42,42,I,N,0.881944444,0.936136364,35.25,167,﻿64be4cc005892d8365570c22,2,X,First,25,28,F,0.31397222222222226,1440,100,6,0.05419191999999995
42,8,N,I,0.076640625,0.325681818,95.52,32,﻿64be4cc005892d8365570c22,3,Y,First,25,28,F,0.31397222222222226,1440,100,6,0.249041193
42,18,N,N,0.770989583,0.505227273,87.36,69,﻿64be4cc005892d8365570c22,4,A,First,25,28,F,0.31397222222222226,1440,100,6,-0.26576230999999995
42,33,I,I,0.501979167,0.774545455,63.57,130,﻿64be4cc005892d8365570c22,5,B,First,25,28,F,0.31397222222222226,1440,100,6,0.27256628800000005
42,17,N,N,0.619192708,0.487272727,88.33,65,﻿64be4cc005892d8365570c22,6,A,First,25,28,F,0.31397222222222226,1440,100,6,-0.13191998100000002
42,45,I,N,0.950837674,0.99,14.13,179,﻿64be4cc005892d8365570c22,7,X,First,25,28,F,0.31397222222222226,1440,100,6,0.039162326000000025
42,35,I,I,0.385425347,0.810454545,58.87,138,﻿64be4cc005892d8365570c22,8,B,First,25,28,F,0.31397222222222226,1440,100,6,0.42502919800000005
42,32,I,I,0.406419271,0.756590909,65.73,126,﻿64be4cc005892d8365570c22,9,B,First,25,28,F,0.31397222222222226,1440,100,6,0.350171638
42,1,I,N,0.044513889,0.2,98.47,3,﻿64be4cc005892d8365570c22,10,X,First,25,28,F,0.31397222222222226,1440,100,6,0.155486111
42,43,I,I,0.841657986,0.954090909,30.04,170,﻿64be4cc005892d8365570c22,11,B,First,25,28,F,0.31397222222222226,1440,100,6,0.11243292300000007
42,28,N,I,0.488190104,0.684772727,73.36,112,﻿64be4cc005892d8365570c22,12,Y,First,25,28,F,0.31397222222222226,1440,100,6,0.196582623
42,37,I,I,0.51093316,0.846363636,53.4,146,﻿64be4cc005892d8365570c22,14,B,First,25,28,F,0.31397222222222226,1440,100,6,0.335430476
42,38,I,N,0.776388889,0.864318182,50.47,151,﻿64be4cc005892d8365570c22,15,X,First,25,28,F,0.31397222222222226,1440,100,6,0.08792929299999996
42,29,N,N,0.891948785,0.702727273,71.6,113,﻿64be4cc005892d8365570c22,16,A,First,25,28,F,0.31397222222222226,1440,100,6,-0.18922151199999993
42,42,N,N,0.951770833,0.936136364,35.25,165,﻿64be4cc005892d8365570c22,17,A,First,25,28,F,0.31397222222222226,1440,100,6,-0.015634468999999984
42,10,I,I,0.080954861,0.361590909,94.23,38,﻿64be4cc005892d8365570c22,18,B,First,25,28,F,0.31397222222222226,1440,100,6,0.280636048
42,10,I,N,0.088172743,0.361590909,94.23,39,﻿64be4cc005892d8365570c22,19,X,First,25,28,F,0.31397222222222226,1440,100,6,0.273418166
42,7,N,I,0.026992187,0.307727273,96.03,28,﻿64be4cc005892d8365570c22,20,Y,First,25,28,F,0.31397222222222226,1440,100,6,0.280735086
42,2,N,N,0.083828125,0.217954545,98.2,5,﻿64be4cc005892d8365570c22,21,A,First,25,28,F,0.31397222222222226,1440,100,6,0.13412642
42,3,I,N,0.075512153,0.235909091,97.87,11,﻿64be4cc005892d8365570c22,22,X,First,25,28,F,0.31397222222222226,1440,100,6,0.160396938
42,33,N,N,0.917456597,0.774545455,63.57,129,﻿64be4cc005892d8365570c22,23,A,First,25,28,F,0.31397222222222226,1440,100,6,-0.142911142
42,33,N,I,0.717621528,0.774545455,63.57,132,﻿64be4cc005892d8365570c22,24,Y,First,25,28,F,0.31397222222222226,1440,100,6,0.05692392700000004
42,15,I,I,0.288854167,0.451363636,90.29,58,﻿64be4cc005892d8365570c22,25,B,First,25,28,F,0.31397222222222226,1440,100,6,0.16250946900000002
42,7,I,I,0.167738715,0.307727273,96.03,26,﻿64be4cc005892d8365570c22,26,B,First,25,28,F,0.31397222222222226,1440,100,6,0.139988558
42,45,N,N,0.983867188,0.99,14.13,177,﻿64be4cc005892d8365570c22,27,A,First,25,28,F,0.31397222222222226,1440,100,6,0.006132812000000043
42,26,N,N,0.893216146,0.648863636,76.62,101,﻿64be4cc005892d8365570c22,28,A,First,25,28,F,0.31397222222222226,1440,100,6,-0.24435251000000002
42,37,N,N,0.847769097,0.846363636,53.4,145,﻿64be4cc005892d8365570c22,29,A,First,25,28,F,0.31397222222222226,1440,100,6,-0.0014054610000000523
42,2,N,I,0.14499566,0.217954545,98.2,8,﻿64be4cc005892d8365570c22,30,Y,First,25,28,F,0.31397222222222226,1440,100,6,0.072958885
42,15,N,I,0.285963542,0.451363636,90.29,60,﻿64be4cc005892d8365570c22,31,Y,First,25,28,F,0.31397222222222226,1440,100,6,0.165400094
42,19,I,I,0.211545139,0.523181818,86.21,74,﻿64be4cc005892d8365570c22,33,B,First,25,28,F,0.31397222222222226,1440,100,6,0.31163667899999997
42,20,N,I,0.329943576,0.541136364,85.04,80,﻿64be4cc005892d8365570c22,34,Y,First,25,28,F,0.31397222222222226,1440,100,6,0.21119278799999996
42,5,I,N,0.109904514,0.271818182,96.99,19,﻿64be4cc005892d8365570c22,35,X,First,25,28,F,0.31397222222222226,1440,100,6,0.161913668
42,40,N,I,0.757482639,0.900227273,43.56,160,﻿64be4cc005892d8365570c22,36,Y,First,25,28,F,0.31397222222222226,1440,100,6,0.14274463400000004
42,38,N,N,0.893103299,0.864318182,50.47,149,﻿64be4cc005892d8365570c22,37,A,First,25,28,F,0.31397222222222226,1440,100,6,-0.02878511699999997
42,22,N,N,0.809140625,0.577045455,82.45,85,﻿64be4cc005892d8365570c22,38,A,First,25,28,F,0.31397222222222226,1440,100,6,-0.2320951699999999
42,23,N,N,0.708177083,0.595,81.13,89,﻿64be4cc005892d8365570c22,39,A,First,25,28,F,0.31397222222222226,1440,100,6,-0.11317708300000007
42,39,N,N,0.877643229,0.882272727,47.19,153,﻿64be4cc005892d8365570c22,40,A,First,25,28,F,0.31397222222222226,1440,100,6,0.00462949800000001
42,16,N,N,0.618029514,0.469318182,89.4,61,﻿64be4cc005892d8365570c22,41,A,First,25,28,F,0.31397222222222226,1440,100,6,-0.14871133199999997
42,18,I,N,0.243289931,0.505227273,87.36,71,﻿64be4cc005892d8365570c22,42,X,First,25,28,F,0.31397222222222226,1440,100,6,0.2619373420000001
42,37,N,I,0.638993056,0.846363636,53.4,148,﻿64be4cc005892d8365570c22,43,Y,First,25,28,F,0.31397222222222226,1440,100,6,0.20737057999999997
42,5,N,I,0.103103299,0.271818182,96.99,20,﻿64be4cc005892d8365570c22,44,Y,First,25,28,F,0.31397222222222226,1440,100,6,0.16871488300000004
42,11,I,I,0.109171007,0.379545455,93.55,42,﻿64be4cc005892d8365570c22,45,B,First,25,28,F,0.31397222222222226,1440,100,6,0.270374448
42,19,I,N,0.227556424,0.523181818,86.21,75,﻿64be4cc005892d8365570c22,47,X,First,25,28,F,0.31397222222222226,1440,100,6,0.295625394
42,3,N,N,0.143424479,0.235909091,97.87,9,﻿64be4cc005892d8365570c22,48,A,First,25,28,F,0.31397222222222226,1440,100,6,0.092484612
42,37,I,N,0.640125868,0.846363636,53.4,147,﻿64be4cc005892d8365570c22,49,X,First,25,28,F,0.31397222222222226,1440,100,6,0.20623776799999993
42,11,N,I,0.235095486,0.379545455,93.55,44,﻿64be4cc005892d8365570c22,51,Y,First,25,28,F,0.31397222222222226,1440,100,6,0.14444996899999998
42,40,I,N,0.769014757,0.900227273,43.56,159,﻿64be4cc005892d8365570c22,52,X,First,25,28,F,0.31397222222222226,1440,100,6,0.13121251600000006
42,3,N,I,0.159861111,0.235909091,97.87,12,﻿64be4cc005892d8365570c22,53,Y,First,25,28,F,0.31397222222222226,1440,100,6,0.07604797999999999
42,13,N,N,0.581150174,0.415454545,91.98,49,﻿64be4cc005892d8365570c22,54,A,First,25,28,F,0.31397222222222226,1440,100,6,-0.165695629
42,45,N,I,0.890642361,0.99,14.13,180,﻿64be4cc005892d8365570c22,55,Y,First,25,28,F,0.31397222222222226,1440,100,6,0.09935763899999994
42,35,N,N,0.898940972,0.810454545,58.87,137,﻿64be4cc005892d8365570c22,56,A,First,25,28,F,0.31397222222222226,1440,100,6,-0.08848642699999998
42,41,I,I,0.877756076,0.918181818,39.66,162,﻿64be4cc005892d8365570c22,57,B,First,25,28,F,0.31397222222222226,1440,100,6,0.04042574199999993
42,40,I,I,0.886215278,0.900227273,43.56,158,﻿64be4cc005892d8365570c22,58,B,First,25,28,F,0.31397222222222226,1440,100,6,0.014011995000000055
42,6,I,N,0.141206597,0.289772727,96.58,23,﻿64be4cc005892d8365570c22,59,X,First,25,28,F,0.31397222222222226,1440,100,6,0.14856613000000002
42,34,N,N,0.838767361,0.7925,61.29,133,﻿64be4cc005892d8365570c22,60,A,First,25,28,F,0.31397222222222226,1440,100,6,-0.04626736100000006
42,12,I,N,0.202226562,0.3975,92.82,47,﻿64be4cc005892d8365570c22,61,X,First,25,28,F,0.31397222222222226,1440,100,6,0.19527343800000002
42,9,I,I,0.072881944,0.343636364,94.9,34,﻿64be4cc005892d8365570c22,62,B,First,25,28,F,0.31397222222222226,1440,100,6,0.27075442000000005
42,4,I,I,0.072868924,0.253863636,97.45,14,﻿64be4cc005892d8365570c22,63,B,First,25,28,F,0.31397222222222226,1440,100,6,0.180994712
42,9,N,I,0.15672309,0.343636364,94.9,36,﻿64be4cc005892d8365570c22,64,Y,First,25,28,F,0.31397222222222226,1440,100,6,0.18691327400000002
42,33,I,N,0.62734809,0.774545455,63.57,131,﻿64be4cc005892d8365570c22,65,X,First,25,28,F,0.31397222222222226,1440,100,6,0.14719736500000002
42,27,N,N,0.875768229,0.666818182,75.05,105,﻿64be4cc005892d8365570c22,66,A,First,25,28,F,0.31397222222222226,1440,100,6,-0.20895004699999997
42,28,I,N,0.699765625,0.684772727,73.36,111,﻿64be4cc005892d8365570c22,67,X,First,25,28,F,0.31397222222222226,1440,100,6,-0.014992897999999921
42,31,N,N,0.912330729,0.738636364,67.86,121,﻿64be4cc005892d8365570c22,68,A,First,25,28,F,0.31397222222222226,1440,100,6,-0.17369436500000002
42,30,I,N,0.844704861,0.720681818,69.76,119,﻿64be4cc005892d8365570c22,69,X,First,25,28,F,0.31397222222222226,1440,100,6,-0.124023043
42,36,I,I,0.620742188,0.828409091,56.22,142,﻿64be4cc005892d8365570c22,70,B,First,25,28,F,0.31397222222222226,1440,100,6,0.207666903
42,23,I,I,0.283012153,0.595,81.13,90,﻿64be4cc005892d8365570c22,71,B,First,25,28,F,0.31397222222222226,1440,100,6,0.311987847
42,8,N,N,0.403333333,0.325681818,95.52,29,﻿64be4cc005892d8365570c22,72,A,First,25,28,F,0.31397222222222226,1440,100,6,-0.077651515
42,6,N,N,0.321783854,0.289772727,96.58,21,﻿64be4cc005892d8365570c22,73,A,First,25,28,F,0.31397222222222226,1440,100,6,-0.03201112699999997
42,41,N,N,0.93468316,0.918181818,39.66,161,﻿64be4cc005892d8365570c22,74,A,First,25,28,F,0.31397222222222226,1440,100,6,-0.016501341999999974
42,20,I,I,0.131271701,0.541136364,85.04,78,﻿64be4cc005892d8365570c22,75,B,First,25,28,F,0.31397222222222226,1440,100,6,0.409864663
42,7,I,N,0.089418403,0.307727273,96.03,27,﻿64be4cc005892d8365570c22,76,X,First,25,28,F,0.31397222222222226,1440,100,6,0.21830887000000004
42,22,N,I,0.349474826,0.577045455,82.45,88,﻿64be4cc005892d8365570c22,77,Y,First,25,28,F,0.31397222222222226,1440,100,6,0.22757062900000002
42,32,I,N,0.480585938,0.756590909,65.73,127,﻿64be4cc005892d8365570c22,78,X,First,25,28,F,0.31397222222222226,1440,100,6,0.27600497100000004
42,27,I,N,0.463984375,0.666818182,75.05,107,﻿64be4cc005892d8365570c22,79,X,First,25,28,F,0.31397222222222226,1440,100,6,0.20283380699999998
42,1,I,I,0.181002604,0.2,98.47,2,﻿64be4cc005892d8365570c22,80,B,First,25,28,F,0.31397222222222226,1440,100,6,0.018997396
42,21,N,N,0.649743924,0.559090909,83.77,81,﻿64be4cc005892d8365570c22,81,A,First,25,28,F,0.31397222222222226,1440,100,6,-0.090653015
42,31,I,N,0.696896701,0.738636364,67.86,123,﻿64be4cc005892d8365570c22,82,X,First,25,28,F,0.31397222222222226,1440,100,6,0.04173966299999998
42,44,N,I,0.795277778,0.972045455,23.65,176,﻿64be4cc005892d8365570c22,83,Y,First,25,28,F,0.31397222222222226,1440,100,6,0.17676767699999996
42,35,I,N,0.828741319,0.810454545,58.87,139,﻿64be4cc005892d8365570c22,84,X,First,25,28,F,0.31397222222222226,1440,100,6,-0.018286774000000006
42,21,I,I,0.546731771,0.559090909,83.77,82,﻿64be4cc005892d8365570c22,85,B,First,25,28,F,0.31397222222222226,1440,100,6,0.012359137999999992
42,1,N,N,0.454817708,0.2,98.47,1,﻿64be4cc005892d8365570c22,86,A,First,25,28,F,0.31397222222222226,1440,100,6,-0.254817708
42,43,N,I,0.827304688,0.954090909,30.04,172,﻿64be4cc005892d8365570c22,87,Y,First,25,28,F,0.31397222222222226,1440,100,6,0.12678622100000003
42,9,I,N,0.247686632,0.343636364,94.9,35,﻿64be4cc005892d8365570c22,88,X,First,25,28,F,0.31397222222222226,1440,100,6,0.09594973200000004
42,39,I,N,0.629227431,0.882272727,47.19,155,﻿64be4cc005892d8365570c22,89,X,First,25,28,F,0.31397222222222226,1440,100,6,0.25304529600000003
42,9,N,N,0.361844618,0.343636364,94.9,33,﻿64be4cc005892d8365570c22,90,A,First,25,28,F,0.31397222222222226,1440,100,6,-0.01820825399999998
42,26,I,N,0.583020833,0.648863636,76.62,103,﻿64be4cc005892d8365570c22,91,X,First,25,28,F,0.31397222222222226,1440,100,6,0.065842803
42,29,I,N,0.677756076,0.702727273,71.6,115,﻿64be4cc005892d8365570c22,92,X,First,25,28,F,0.31397222222222226,1440,100,6,0.024971197000000056
42,16,I,N,0.50390191,0.469318182,89.4,63,﻿64be4cc005892d8365570c22,93,X,Second,25,28,F,0.31397222222222226,1440,100,6,-0.03458372799999998
42,28,N,N,0.754887153,0.684772727,73.36,109,﻿64be4cc005892d8365570c22,94,A,Second,25,28,F,0.31397222222222226,1440,100,6,-0.07011442599999995
42,2,I,I,0.373684896,0.217954545,98.2,6,﻿64be4cc005892d8365570c22,95,B,Second,25,28,F,0.31397222222222226,1440,100,6,-0.155730351
42,36,I,N,0.679492188,0.828409091,56.22,143,﻿64be4cc005892d8365570c22,96,X,Second,25,28,F,0.31397222222222226,1440,100,6,0.14891690300000004
42,42,I,I,0.774891493,0.936136364,35.25,166,﻿64be4cc005892d8365570c22,97,B,Second,25,28,F,0.31397222222222226,1440,100,6,0.16124487099999996
42,30,N,I,0.770078125,0.720681818,69.76,120,﻿64be4cc005892d8365570c22,98,Y,Second,25,28,F,0.31397222222222226,1440,100,6,-0.04939630699999997
42,17,N,I,0.536892361,0.487272727,88.33,68,﻿64be4cc005892d8365570c22,99,Y,Second,25,28,F,0.31397222222222226,1440,100,6,-0.049619634000000024
42,18,N,I,0.40765191,0.505227273,87.36,72,﻿64be4cc005892d8365570c22,100,Y,Second,25,28,F,0.31397222222222226,1440,100,6,0.09757536300000003
42,24,N,I,0.627352431,0.612954545,79.66,96,﻿64be4cc005892d8365570c22,101,Y,Second,25,28,F,0.31397222222222226,1440,100,6,-0.014397886000000026
42,42,N,I,0.853103299,0.936136364,35.25,168,﻿64be4cc005892d8365570c22,103,Y,Second,25,28,F,0.31397222222222226,1440,100,6,0.08303306499999996
42,24,I,I,0.631102431,0.612954545,79.66,94,﻿64be4cc005892d8365570c22,104,B,Second,25,28,F,0.31397222222222226,1440,100,6,-0.018147885999999946
42,26,I,I,0.661684028,0.648863636,76.62,102,﻿64be4cc005892d8365570c22,105,B,Second,25,28,F,0.31397222222222226,1440,100,6,-0.01282039200000007
42,10,N,I,0.351892361,0.361590909,94.23,40,﻿64be4cc005892d8365570c22,106,Y,Second,25,28,F,0.31397222222222226,1440,100,6,0.009698548000000029
42,15,N,N,0.581128472,0.451363636,90.29,57,﻿64be4cc005892d8365570c22,107,A,Second,25,28,F,0.31397222222222226,1440,100,6,-0.12976483599999994
42,28,I,I,0.664596354,0.684772727,73.36,110,﻿64be4cc005892d8365570c22,108,B,Second,25,28,F,0.31397222222222226,1440,100,6,0.02017637300000008
42,4,N,I,0.289474826,0.253863636,97.45,16,﻿64be4cc005892d8365570c22,109,Y,Second,25,28,F,0.31397222222222226,1440,100,6,-0.035611190000000015
42,43,N,N,0.919440104,0.954090909,30.04,169,﻿64be4cc005892d8365570c22,110,A,Second,25,28,F,0.31397222222222226,1440,100,6,0.03465080500000006
42,21,N,I,0.755533854,0.559090909,83.77,84,﻿64be4cc005892d8365570c22,111,Y,Second,25,28,F,0.31397222222222226,1440,100,6,-0.19644294499999992
42,14,I,N,0.198428819,0.433409091,91.2,55,﻿64be4cc005892d8365570c22,112,X,Second,25,28,F,0.31397222222222226,1440,100,6,0.23498027200000002
42,22,I,I,0.336835937,0.577045455,82.45,86,﻿64be4cc005892d8365570c22,113,B,Second,25,28,F,0.31397222222222226,1440,100,6,0.24020951800000007
42,45,I,I,0.847625868,0.99,14.13,178,﻿64be4cc005892d8365570c22,114,B,Second,25,28,F,0.31397222222222226,1440,100,6,0.14237413200000004
42,11,N,N,0.612517361,0.379545455,93.55,41,﻿64be4cc005892d8365570c22,115,A,Second,25,28,F,0.31397222222222226,1440,100,6,-0.232971906
42,25,I,N,0.577439236,0.630909091,78.2,99,﻿64be4cc005892d8365570c22,116,X,Second,25,28,F,0.31397222222222226,1440,100,6,0.05346985500000001
42,16,N,I,0.383229167,0.469318182,89.4,64,﻿64be4cc005892d8365570c22,117,Y,Second,25,28,F,0.31397222222222226,1440,100,6,0.08608901499999999
42,44,I,I,0.723828125,0.972045455,23.65,174,﻿64be4cc005892d8365570c22,118,B,Second,25,28,F,0.31397222222222226,1440,100,6,0.2482173299999999
42,36,N,N,0.815060764,0.828409091,56.22,141,﻿64be4cc005892d8365570c22,119,A,Second,25,28,F,0.31397222222222226,1440,100,6,0.013348326999999993
42,19,N,N,0.756041667,0.523181818,86.21,73,﻿64be4cc005892d8365570c22,120,A,Second,25,28,F,0.31397222222222226,1440,100,6,-0.232859849
42,6,I,I,0.221766493,0.289772727,96.58,22,﻿64be4cc005892d8365570c22,121,B,Second,25,28,F,0.31397222222222226,1440,100,6,0.068006234
42,8,I,N,0.15078559,0.325681818,95.52,31,﻿64be4cc005892d8365570c22,122,X,Second,25,28,F,0.31397222222222226,1440,100,6,0.17489622800000001
42,31,I,I,0.416280382,0.738636364,67.86,122,﻿64be4cc005892d8365570c22,123,B,Second,25,28,F,0.31397222222222226,1440,100,6,0.322355982
42,22,I,N,0.318784722,0.577045455,82.45,87,﻿64be4cc005892d8365570c22,124,X,Second,25,28,F,0.31397222222222226,1440,100,6,0.258260733
42,5,N,N,0.46296875,0.271818182,96.99,17,﻿64be4cc005892d8365570c22,125,A,Second,25,28,F,0.31397222222222226,1440,100,6,-0.19115056799999997
42,23,I,N,0.563103299,0.595,81.13,91,﻿64be4cc005892d8365570c22,126,X,Second,25,28,F,0.31397222222222226,1440,100,6,0.03189670099999997
42,26,N,I,0.646766493,0.648863636,76.62,104,﻿64be4cc005892d8365570c22,127,Y,Second,25,28,F,0.31397222222222226,1440,100,6,0.002097142999999968
42,39,I,I,0.727052951,0.882272727,47.19,154,﻿64be4cc005892d8365570c22,128,B,Second,25,28,F,0.31397222222222226,1440,100,6,0.15521977600000003
42,20,N,N,0.781375868,0.541136364,85.04,77,﻿64be4cc005892d8365570c22,129,A,Second,25,28,F,0.31397222222222226,1440,100,6,-0.24023950400000005
42,43,I,N,0.881749132,0.954090909,30.04,171,﻿64be4cc005892d8365570c22,130,X,Second,25,28,F,0.31397222222222226,1440,100,6,0.072341777
42,41,I,N,0.889748264,0.918181818,39.66,163,﻿64be4cc005892d8365570c22,131,X,Second,25,28,F,0.31397222222222226,1440,100,6,0.028433554000000028
42,7,N,N,0.62983941,0.307727273,96.03,25,﻿64be4cc005892d8365570c22,132,A,Second,25,28,F,0.31397222222222226,1440,100,6,-0.32211213699999997
42,4,N,N,0.420230035,0.253863636,97.45,13,﻿64be4cc005892d8365570c22,133,A,Second,25,28,F,0.31397222222222226,1440,100,6,-0.166366399
42,39,N,I,0.784110243,0.882272727,47.19,156,﻿64be4cc005892d8365570c22,134,Y,Second,25,28,F,0.31397222222222226,1440,100,6,0.09816248400000005
42,17,I,N,0.567065972,0.487272727,88.33,67,﻿64be4cc005892d8365570c22,135,X,Second,25,28,F,0.31397222222222226,1440,100,6,-0.07979324499999996
42,13,N,I,0.380299479,0.415454545,91.98,52,﻿64be4cc005892d8365570c22,136,Y,Second,25,28,F,0.31397222222222226,1440,100,6,0.03515506600000001
42,29,I,I,0.521727431,0.702727273,71.6,114,﻿64be4cc005892d8365570c22,137,B,Second,25,28,F,0.31397222222222226,1440,100,6,0.18099984200000008
42,25,N,N,0.714613715,0.630909091,78.2,97,﻿64be4cc005892d8365570c22,138,A,Second,25,28,F,0.31397222222222226,1440,100,6,-0.083704624
42,12,N,I,0.31890191,0.3975,92.82,48,﻿64be4cc005892d8365570c22,139,Y,Second,25,28,F,0.31397222222222226,1440,100,6,0.07859809000000001
42,12,I,I,0.214505208,0.3975,92.82,46,﻿64be4cc005892d8365570c22,140,B,Second,25,28,F,0.31397222222222226,1440,100,6,0.18299479200000002
42,25,N,I,0.517243924,0.630909091,78.2,100,﻿64be4cc005892d8365570c22,141,Y,Second,25,28,F,0.31397222222222226,1440,100,6,0.11366516700000007
42,5,I,I,0.261054688,0.271818182,96.99,18,﻿64be4cc005892d8365570c22,142,B,Second,25,28,F,0.31397222222222226,1440,100,6,0.01076349400000004
42,14,N,I,0.289401042,0.433409091,91.2,56,﻿64be4cc005892d8365570c22,143,Y,Second,25,28,F,0.31397222222222226,1440,100,6,0.14400804900000003
42,10,N,N,0.350421007,0.361590909,94.23,37,﻿64be4cc005892d8365570c22,144,A,Second,25,28,F,0.31397222222222226,1440,100,6,0.01116990200000001
42,15,I,N,0.300703125,0.451363636,90.29,59,﻿64be4cc005892d8365570c22,145,X,Second,25,28,F,0.31397222222222226,1440,100,6,0.150660511
42,34,N,I,0.642287326,0.7925,61.29,136,﻿64be4cc005892d8365570c22,146,Y,Second,25,28,F,0.31397222222222226,1440,100,6,0.15021267399999993
42,44,N,N,0.966419271,0.972045455,23.65,173,﻿64be4cc005892d8365570c22,147,A,Second,25,28,F,0.31397222222222226,1440,100,6,0.005626183999999923
42,24,I,N,0.660729167,0.612954545,79.66,95,﻿64be4cc005892d8365570c22,148,X,Second,25,28,F,0.31397222222222226,1440,100,6,-0.04777462199999993
42,27,N,I,0.573168403,0.666818182,75.05,108,﻿64be4cc005892d8365570c22,149,Y,Second,25,28,F,0.31397222222222226,1440,100,6,0.09364977899999993
42,16,I,I,0.298428819,0.469318182,89.4,62,﻿64be4cc005892d8365570c22,150,B,Second,25,28,F,0.31397222222222226,1440,100,6,0.17088936299999996
42,34,I,N,0.555477431,0.7925,61.29,135,﻿64be4cc005892d8365570c22,151,X,Second,25,28,F,0.31397222222222226,1440,100,6,0.23702256899999996
42,11,I,N,0.302508681,0.379545455,93.55,43,﻿64be4cc005892d8365570c22,152,X,Second,25,28,F,0.31397222222222226,1440,100,6,0.07703677399999997
42,8,I,I,0.367148438,0.325681818,95.52,30,﻿64be4cc005892d8365570c22,153,B,Second,25,28,F,0.31397222222222226,1440,100,6,-0.04146662000000001
42,38,I,I,0.660086806,0.864318182,50.47,150,﻿64be4cc005892d8365570c22,154,B,Second,25,28,F,0.31397222222222226,1440,100,6,0.20423137599999996
42,30,N,N,0.77937934,0.720681818,69.76,117,﻿64be4cc005892d8365570c22,155,A,Second,25,28,F,0.31397222222222226,1440,100,6,-0.058697522
42,27,I,I,0.609461806,0.666818182,75.05,106,﻿64be4cc005892d8365570c22,156,B,Second,25,28,F,0.31397222222222226,1440,100,6,0.05735637599999999
42,34,I,I,0.669830729,0.7925,61.29,134,﻿64be4cc005892d8365570c22,157,B,Second,25,28,F,0.31397222222222226,1440,100,6,0.12266927100000002
42,40,N,N,0.844422743,0.900227273,43.56,157,﻿64be4cc005892d8365570c22,158,A,Second,25,28,F,0.31397222222222226,1440,100,6,0.055804530000000074
42,29,N,I,0.661788194,0.702727273,71.6,116,﻿64be4cc005892d8365570c22,159,Y,Second,25,28,F,0.31397222222222226,1440,100,6,0.040939079000000045
42,32,N,I,0.722074653,0.756590909,65.73,128,﻿64be4cc005892d8365570c22,160,Y,Second,25,28,F,0.31397222222222226,1440,100,6,0.03451625600000008
42,1,N,I,0.191310764,0.2,98.47,4,﻿64be4cc005892d8365570c22,161,Y,Second,25,28,F,0.31397222222222226,1440,100,6,0.008689236000000017
42,14,N,N,0.390186632,0.433409091,91.2,53,﻿64be4cc005892d8365570c22,162,A,Second,25,28,F,0.31397222222222226,1440,100,6,0.043222459000000046
42,12,N,N,0.413363715,0.3975,92.82,45,﻿64be4cc005892d8365570c22,163,A,Second,25,28,F,0.31397222222222226,1440,100,6,-0.015863715
42,2,I,N,NA,0.217954545,98.2,7,﻿64be4cc005892d8365570c22,164,X,Second,25,28,F,0.31397222222222226,1440,100,6,NA
42,36,N,I,0.647317708,0.828409091,56.22,144,﻿64be4cc005892d8365570c22,165,Y,Second,25,28,F,0.31397222222222226,1440,100,6,0.18109138300000005
42,24,N,N,0.757782118,0.612954545,79.66,93,﻿64be4cc005892d8365570c22,166,A,Second,25,28,F,0.31397222222222226,1440,100,6,-0.14482757299999993
42,30,I,I,0.394570313,0.720681818,69.76,118,﻿64be4cc005892d8365570c22,167,B,Second,25,28,F,0.31397222222222226,1440,100,6,0.32611150499999997
42,38,N,I,0.66390625,0.864318182,50.47,152,﻿64be4cc005892d8365570c22,168,Y,Second,25,28,F,0.31397222222222226,1440,100,6,0.20041193199999996
42,32,N,N,0.832100694,0.756590909,65.73,125,﻿64be4cc005892d8365570c22,169,A,Second,25,28,F,0.31397222222222226,1440,100,6,-0.07550978499999994
42,44,I,N,0.917960069,0.972045455,23.65,175,﻿64be4cc005892d8365570c22,170,X,Second,25,28,F,0.31397222222222226,1440,100,6,0.0540853859999999
42,41,N,I,0.862638889,0.918181818,39.66,164,﻿64be4cc005892d8365570c22,171,Y,Second,25,28,F,0.31397222222222226,1440,100,6,0.05554292900000002
42,19,N,I,0.566749132,0.523181818,86.21,76,﻿64be4cc005892d8365570c22,172,Y,Second,25,28,F,0.31397222222222226,1440,100,6,-0.043567314000000024
42,23,N,I,0.491380208,0.595,81.13,92,﻿64be4cc005892d8365570c22,173,Y,Second,25,28,F,0.31397222222222226,1440,100,6,0.10361979199999999
42,25,I,I,0.351918403,0.630909091,78.2,98,﻿64be4cc005892d8365570c22,174,B,Second,25,28,F,0.31397222222222226,1440,100,6,0.27899068800000004
42,4,I,N,0.230377604,0.253863636,97.45,15,﻿64be4cc005892d8365570c22,175,X,Second,25,28,F,0.31397222222222226,1440,100,6,0.02348603199999999
42,17,I,I,0.200013021,0.487272727,88.33,66,﻿64be4cc005892d8365570c22,176,B,Second,25,28,F,0.31397222222222226,1440,100,6,0.287259706
42,31,N,I,0.604513889,0.738636364,67.86,124,﻿64be4cc005892d8365570c22,177,Y,Second,25,28,F,0.31397222222222226,1440,100,6,0.13412247499999996
42,18,I,I,0.474674479,0.505227273,87.36,70,﻿64be4cc005892d8365570c22,178,B,Second,25,28,F,0.31397222222222226,1440,100,6,0.03055279400000005
42,6,N,I,0.195069444,0.289772727,96.58,24,﻿64be4cc005892d8365570c22,180,Y,Second,25,28,F,0.31397222222222226,1440,100,6,0.094703283
42,13,I,I,0.125972222,0.415454545,91.98,50,﻿64be4cc005892d8365570c22,181,B,Second,25,28,F,0.31397222222222226,1440,100,6,0.289482323
42,14,I,I,0.134314236,0.433409091,91.2,54,﻿64be4cc005892d8365570c22,182,B,Second,25,28,F,0.31397222222222226,1440,100,6,0.299094855
42,3,I,I,0.206818576,0.235909091,97.87,10,﻿64be4cc005892d8365570c22,183,B,Second,25,28,F,0.31397222222222226,1440,100,6,0.029090514999999983
42,21,I,N,0.392152778,0.559090909,83.77,83,﻿64be4cc005892d8365570c22,184,X,Second,25,28,F,0.31397222222222226,1440,100,6,0.16693813100000005
42,13,I,N,0.50297309,0.415454545,91.98,51,﻿64be4cc005892d8365570c22,185,X,Second,25,28,F,0.31397222222222226,1440,100,6,-0.087518545
19,34,I,N,0.798003472,0.7925,61.29,135,﻿64be4e952237addc8e6e4e8e,0,X,First,21,24,F,0.31220833333333325,1440,100,6,-0.005503472000000009
19,3,N,N,0.766158854,0.235909091,97.87,9,﻿64be4e952237addc8e6e4e8e,1,A,First,21,24,F,0.31220833333333325,1440,100,6,-0.5302497629999999
19,23,N,N,0.886393229,0.595,81.13,89,﻿64be4e952237addc8e6e4e8e,2,A,First,21,24,F,0.31220833333333325,1440,100,6,-0.291393229
19,42,N,N,0.96141059,0.936136364,35.25,165,﻿64be4e952237addc8e6e4e8e,3,A,First,21,24,F,0.31220833333333325,1440,100,6,-0.025274225999999955
19,38,N,I,0.790581597,0.864318182,50.47,152,﻿64be4e952237addc8e6e4e8e,4,Y,First,21,24,F,0.31220833333333325,1440,100,6,0.07373658500000002
19,15,N,I,0.469678819,0.451363636,90.29,60,﻿64be4e952237addc8e6e4e8e,5,Y,First,21,24,F,0.31220833333333325,1440,100,6,-0.018315183000000013
19,1,I,I,0.330577257,0.2,98.47,2,﻿64be4e952237addc8e6e4e8e,6,B,First,21,24,F,0.31220833333333325,1440,100,6,-0.130577257
19,28,N,I,0.449006076,0.684772727,73.36,112,﻿64be4e952237addc8e6e4e8e,7,Y,First,21,24,F,0.31220833333333325,1440,100,6,0.23576665100000005
19,15,I,N,0.338320313,0.451363636,90.29,59,﻿64be4e952237addc8e6e4e8e,8,X,First,21,24,F,0.31220833333333325,1440,100,6,0.11304332300000003
19,20,N,N,0.693146701,0.541136364,85.04,77,﻿64be4e952237addc8e6e4e8e,9,A,First,21,24,F,0.31220833333333325,1440,100,6,-0.152010337
19,2,I,N,0.334565972,0.217954545,98.2,7,﻿64be4e952237addc8e6e4e8e,10,X,First,21,24,F,0.31220833333333325,1440,100,6,-0.11661142699999999
19,24,N,N,0.862634549,0.612954545,79.66,93,﻿64be4e952237addc8e6e4e8e,11,A,First,21,24,F,0.31220833333333325,1440,100,6,-0.249680004
19,19,N,N,0.814587674,0.523181818,86.21,73,﻿64be4e952237addc8e6e4e8e,12,A,First,21,24,F,0.31220833333333325,1440,100,6,-0.291405856
19,6,N,I,0.450633681,0.289772727,96.58,24,﻿64be4e952237addc8e6e4e8e,13,Y,First,21,24,F,0.31220833333333325,1440,100,6,-0.160860954
19,38,N,N,0.957061632,0.864318182,50.47,149,﻿64be4e952237addc8e6e4e8e,14,A,First,21,24,F,0.31220833333333325,1440,100,6,-0.09274345000000006
19,12,N,I,0.318294271,0.3975,92.82,48,﻿64be4e952237addc8e6e4e8e,15,Y,First,21,24,F,0.31220833333333325,1440,100,6,0.079205729
19,8,N,I,0.423789063,0.325681818,95.52,32,﻿64be4e952237addc8e6e4e8e,16,Y,First,21,24,F,0.31220833333333325,1440,100,6,-0.09810724500000001
19,6,I,I,0.300546875,0.289772727,96.58,22,﻿64be4e952237addc8e6e4e8e,17,B,First,21,24,F,0.31220833333333325,1440,100,6,-0.010774147999999983
19,13,N,I,0.236171875,0.415454545,91.98,52,﻿64be4e952237addc8e6e4e8e,18,Y,First,21,24,F,0.31220833333333325,1440,100,6,0.17928267
19,27,I,N,0.239197049,0.666818182,75.05,107,﻿64be4e952237addc8e6e4e8e,19,X,First,21,24,F,0.31220833333333325,1440,100,6,0.427621133
19,30,N,N,0.853337674,0.720681818,69.76,117,﻿64be4e952237addc8e6e4e8e,20,A,First,21,24,F,0.31220833333333325,1440,100,6,-0.13265585600000007
19,6,N,N,0.288046875,0.289772727,96.58,21,﻿64be4e952237addc8e6e4e8e,21,A,First,21,24,F,0.31220833333333325,1440,100,6,0.0017258520000000277
19,26,I,N,0.259587674,0.648863636,76.62,103,﻿64be4e952237addc8e6e4e8e,22,X,First,21,24,F,0.31220833333333325,1440,100,6,0.389275962
19,28,I,I,0.327378472,0.684772727,73.36,110,﻿64be4e952237addc8e6e4e8e,23,B,First,21,24,F,0.31220833333333325,1440,100,6,0.35739425500000005
19,29,N,N,0.826666667,0.702727273,71.6,113,﻿64be4e952237addc8e6e4e8e,24,A,First,21,24,F,0.31220833333333325,1440,100,6,-0.12393939399999998
19,14,N,I,0.422586806,0.433409091,91.2,56,﻿64be4e952237addc8e6e4e8e,25,Y,First,21,24,F,0.31220833333333325,1440,100,6,0.010822285000000043
19,18,N,N,0.73875,0.505227273,87.36,69,﻿64be4e952237addc8e6e4e8e,26,A,First,21,24,F,0.31220833333333325,1440,100,6,-0.23352272699999999
19,23,N,I,0.28812066,0.595,81.13,92,﻿64be4e952237addc8e6e4e8e,27,Y,First,21,24,F,0.31220833333333325,1440,100,6,0.30687934
19,36,I,I,0.452395833,0.828409091,56.22,142,﻿64be4e952237addc8e6e4e8e,28,B,First,21,24,F,0.31220833333333325,1440,100,6,0.376013258
19,43,I,I,0.639592014,0.954090909,30.04,170,﻿64be4e952237addc8e6e4e8e,29,B,First,21,24,F,0.31220833333333325,1440,100,6,0.31449889500000006
19,1,I,N,0.21280816,0.2,98.47,3,﻿64be4e952237addc8e6e4e8e,30,X,First,21,24,F,0.31220833333333325,1440,100,6,-0.012808159999999985
19,35,I,I,0.322417535,0.810454545,58.87,138,﻿64be4e952237addc8e6e4e8e,31,B,First,21,24,F,0.31220833333333325,1440,100,6,0.48803701000000005
19,45,N,I,0.852547743,0.99,14.13,180,﻿64be4e952237addc8e6e4e8e,32,Y,First,21,24,F,0.31220833333333325,1440,100,6,0.13745225699999997
19,29,N,I,0.305164931,0.702727273,71.6,116,﻿64be4e952237addc8e6e4e8e,33,Y,First,21,24,F,0.31220833333333325,1440,100,6,0.39756234200000007
19,19,I,N,0.333355035,0.523181818,86.21,75,﻿64be4e952237addc8e6e4e8e,34,X,First,21,24,F,0.31220833333333325,1440,100,6,0.18982678299999994
19,44,N,I,0.994743924,0.972045455,23.65,176,﻿64be4e952237addc8e6e4e8e,35,Y,First,21,24,F,0.31220833333333325,1440,100,6,-0.022698469000000054
19,10,N,I,0.415768229,0.361590909,94.23,40,﻿64be4e952237addc8e6e4e8e,36,Y,First,21,24,F,0.31220833333333325,1440,100,6,-0.05417731999999997
19,16,I,N,0.374153646,0.469318182,89.4,63,﻿64be4e952237addc8e6e4e8e,37,X,First,21,24,F,0.31220833333333325,1440,100,6,0.09516453599999997
19,21,I,N,0.354605035,0.559090909,83.77,83,﻿64be4e952237addc8e6e4e8e,38,X,First,21,24,F,0.31220833333333325,1440,100,6,0.204485874
19,22,N,N,0.757274306,0.577045455,82.45,85,﻿64be4e952237addc8e6e4e8e,40,A,First,21,24,F,0.31220833333333325,1440,100,6,-0.18022885099999997
19,45,I,I,0.827430556,0.99,14.13,178,﻿64be4e952237addc8e6e4e8e,41,B,First,21,24,F,0.31220833333333325,1440,100,6,0.16256944399999995
19,19,I,I,0.317955729,0.523181818,86.21,74,﻿64be4e952237addc8e6e4e8e,42,B,First,21,24,F,0.31220833333333325,1440,100,6,0.20522608899999994
19,16,N,N,0.435060764,0.469318182,89.4,61,﻿64be4e952237addc8e6e4e8e,43,A,First,21,24,F,0.31220833333333325,1440,100,6,0.034257417999999984
19,39,I,I,0.621809896,0.882272727,47.19,154,﻿64be4e952237addc8e6e4e8e,44,B,First,21,24,F,0.31220833333333325,1440,100,6,0.260462831
19,39,N,I,0.825447049,0.882272727,47.19,156,﻿64be4e952237addc8e6e4e8e,45,Y,First,21,24,F,0.31220833333333325,1440,100,6,0.056825678000000046
19,3,I,N,0.207578125,0.235909091,97.87,11,﻿64be4e952237addc8e6e4e8e,46,X,First,21,24,F,0.31220833333333325,1440,100,6,0.028330965999999985
19,9,N,I,0.179548611,0.343636364,94.9,36,﻿64be4e952237addc8e6e4e8e,47,Y,First,21,24,F,0.31220833333333325,1440,100,6,0.16408775300000003
19,4,N,I,0.257200521,0.253863636,97.45,16,﻿64be4e952237addc8e6e4e8e,48,Y,First,21,24,F,0.31220833333333325,1440,100,6,-0.0033368850000000116
19,43,N,N,0.929092882,0.954090909,30.04,169,﻿64be4e952237addc8e6e4e8e,49,A,First,21,24,F,0.31220833333333325,1440,100,6,0.02499802700000009
19,32,N,I,0.684552951,0.756590909,65.73,128,﻿64be4e952237addc8e6e4e8e,50,Y,First,21,24,F,0.31220833333333325,1440,100,6,0.07203795800000001
19,27,N,N,0.909622396,0.666818182,75.05,105,﻿64be4e952237addc8e6e4e8e,51,A,First,21,24,F,0.31220833333333325,1440,100,6,-0.24280421400000007
19,36,N,I,0.787539063,0.828409091,56.22,144,﻿64be4e952237addc8e6e4e8e,52,Y,First,21,24,F,0.31220833333333325,1440,100,6,0.04087002800000006
19,9,I,I,0.172296007,0.343636364,94.9,34,﻿64be4e952237addc8e6e4e8e,53,B,First,21,24,F,0.31220833333333325,1440,100,6,0.17134035700000003
19,41,N,N,0.922873264,0.918181818,39.66,161,﻿64be4e952237addc8e6e4e8e,54,A,First,21,24,F,0.31220833333333325,1440,100,6,-0.0046914460000000435
19,18,I,I,0.450946181,0.505227273,87.36,70,﻿64be4e952237addc8e6e4e8e,55,B,First,21,24,F,0.31220833333333325,1440,100,6,0.05428109200000003
19,45,N,N,0.971380208,0.99,14.13,177,﻿64be4e952237addc8e6e4e8e,56,A,First,21,24,F,0.31220833333333325,1440,100,6,0.01861979199999997
19,5,I,N,0.281853299,0.271818182,96.99,19,﻿64be4e952237addc8e6e4e8e,57,X,First,21,24,F,0.31220833333333325,1440,100,6,-0.010035116999999982
19,16,I,I,0.304965278,0.469318182,89.4,62,﻿64be4e952237addc8e6e4e8e,58,B,First,21,24,F,0.31220833333333325,1440,100,6,0.16435290399999997
19,4,I,I,0.241540799,0.253863636,97.45,14,﻿64be4e952237addc8e6e4e8e,59,B,First,21,24,F,0.31220833333333325,1440,100,6,0.012322837000000003
19,39,I,N,0.749856771,0.882272727,47.19,155,﻿64be4e952237addc8e6e4e8e,60,X,First,21,24,F,0.31220833333333325,1440,100,6,0.132415956
19,11,N,I,0.40171441,0.379545455,93.55,44,﻿64be4e952237addc8e6e4e8e,61,Y,First,21,24,F,0.31220833333333325,1440,100,6,-0.022168955000000046
19,22,N,I,0.38577691,0.577045455,82.45,88,﻿64be4e952237addc8e6e4e8e,62,Y,First,21,24,F,0.31220833333333325,1440,100,6,0.19126854500000007
19,37,N,N,0.9271875,0.846363636,53.4,145,﻿64be4e952237addc8e6e4e8e,63,A,First,21,24,F,0.31220833333333325,1440,100,6,-0.08082386400000008
19,2,I,I,0.208467882,0.217954545,98.2,6,﻿64be4e952237addc8e6e4e8e,64,B,First,21,24,F,0.31220833333333325,1440,100,6,0.009486663000000006
19,31,I,I,0.431462674,0.738636364,67.86,122,﻿64be4e952237addc8e6e4e8e,65,B,First,21,24,F,0.31220833333333325,1440,100,6,0.30717369
19,5,N,N,0.604444444,0.271818182,96.99,17,﻿64be4e952237addc8e6e4e8e,66,A,First,21,24,F,0.31220833333333325,1440,100,6,-0.33262626199999995
19,13,I,I,0.592578125,0.415454545,91.98,50,﻿64be4e952237addc8e6e4e8e,67,B,First,21,24,F,0.31220833333333325,1440,100,6,-0.17712357999999995
19,4,N,N,0.683572049,0.253863636,97.45,13,﻿64be4e952237addc8e6e4e8e,68,A,First,21,24,F,0.31220833333333325,1440,100,6,-0.429708413
19,30,I,I,0.589201389,0.720681818,69.76,118,﻿64be4e952237addc8e6e4e8e,69,B,First,21,24,F,0.31220833333333325,1440,100,6,0.131480429
19,14,I,N,0.561679688,0.433409091,91.2,55,﻿64be4e952237addc8e6e4e8e,70,X,First,21,24,F,0.31220833333333325,1440,100,6,-0.128270597
19,11,N,N,0.720195313,0.379545455,93.55,41,﻿64be4e952237addc8e6e4e8e,71,A,First,21,24,F,0.31220833333333325,1440,100,6,-0.34064985799999997
19,26,N,I,0.718914931,0.648863636,76.62,104,﻿64be4e952237addc8e6e4e8e,72,Y,First,21,24,F,0.31220833333333325,1440,100,6,-0.07005129500000007
19,18,N,I,0.697052951,0.505227273,87.36,72,﻿64be4e952237addc8e6e4e8e,73,Y,First,21,24,F,0.31220833333333325,1440,100,6,-0.19182567799999994
19,14,I,I,0.631549479,0.433409091,91.2,54,﻿64be4e952237addc8e6e4e8e,74,B,First,21,24,F,0.31220833333333325,1440,100,6,-0.198140388
19,10,N,N,0.787456597,0.361590909,94.23,37,﻿64be4e952237addc8e6e4e8e,75,A,First,21,24,F,0.31220833333333325,1440,100,6,-0.425865688
19,25,I,I,0.734913194,0.630909091,78.2,98,﻿64be4e952237addc8e6e4e8e,76,B,First,21,24,F,0.31220833333333325,1440,100,6,-0.10400410299999996
19,33,I,I,0.843046875,0.774545455,63.57,130,﻿64be4e952237addc8e6e4e8e,77,B,First,21,24,F,0.31220833333333325,1440,100,6,-0.06850141999999992
19,44,I,I,0.89265625,0.972045455,23.65,174,﻿64be4e952237addc8e6e4e8e,78,B,First,21,24,F,0.31220833333333325,1440,100,6,0.07938920499999991
19,32,N,N,0.932673611,0.756590909,65.73,125,﻿64be4e952237addc8e6e4e8e,79,A,First,21,24,F,0.31220833333333325,1440,100,6,-0.17608270199999998
19,27,I,I,0.593246528,0.666818182,75.05,106,﻿64be4e952237addc8e6e4e8e,80,B,First,21,24,F,0.31220833333333325,1440,100,6,0.07357165399999999
19,3,I,I,0.372834201,0.235909091,97.87,10,﻿64be4e952237addc8e6e4e8e,81,B,First,21,24,F,0.31220833333333325,1440,100,6,-0.13692511
19,33,I,N,0.709279514,0.774545455,63.57,131,﻿64be4e952237addc8e6e4e8e,82,X,First,21,24,F,0.31220833333333325,1440,100,6,0.06526594100000005
19,33,N,I,0.867252604,0.774545455,63.57,132,﻿64be4e952237addc8e6e4e8e,83,Y,First,21,24,F,0.31220833333333325,1440,100,6,-0.09270714899999999
19,42,N,I,0.946002604,0.936136364,35.25,168,﻿64be4e952237addc8e6e4e8e,84,Y,First,21,24,F,0.31220833333333325,1440,100,6,-0.009866240000000026
19,31,N,N,0.976059028,0.738636364,67.86,121,﻿64be4e952237addc8e6e4e8e,85,A,First,21,24,F,0.31220833333333325,1440,100,6,-0.237422664
19,17,I,I,0.484136285,0.487272727,88.33,66,﻿64be4e952237addc8e6e4e8e,86,B,First,21,24,F,0.31220833333333325,1440,100,6,0.003136442000000017
19,24,N,I,0.733615451,0.612954545,79.66,96,﻿64be4e952237addc8e6e4e8e,88,Y,First,21,24,F,0.31220833333333325,1440,100,6,-0.12066090600000001
19,2,N,N,0.775846354,0.217954545,98.2,5,﻿64be4e952237addc8e6e4e8e,89,A,First,21,24,F,0.31220833333333325,1440,100,6,-0.557891809
19,10,I,N,0.572842882,0.361590909,94.23,39,﻿64be4e952237addc8e6e4e8e,90,X,First,21,24,F,0.31220833333333325,1440,100,6,-0.21125197299999998
19,40,I,I,0.781067708,0.900227273,43.56,158,﻿64be4e952237addc8e6e4e8e,91,B,First,21,24,F,0.31220833333333325,1440,100,6,0.11915956500000002
19,32,I,I,0.63125434,0.756590909,65.73,126,﻿64be4e952237addc8e6e4e8e,92,B,First,21,24,F,0.31220833333333325,1440,100,6,0.125336569
19,12,I,N,0.473867188,0.3975,92.82,47,﻿64be4e952237addc8e6e4e8e,93,X,Second,21,24,F,0.31220833333333325,1440,100,6,-0.07636718799999997
19,7,N,I,0.391427951,0.307727273,96.03,28,﻿64be4e952237addc8e6e4e8e,94,Y,Second,21,24,F,0.31220833333333325,1440,100,6,-0.08370067799999997
19,41,N,I,0.959522569,0.918181818,39.66,164,﻿64be4e952237addc8e6e4e8e,96,Y,Second,21,24,F,0.31220833333333325,1440,100,6,-0.04134075100000001
19,11,I,N,0.326896701,0.379545455,93.55,43,﻿64be4e952237addc8e6e4e8e,97,X,Second,21,24,F,0.31220833333333325,1440,100,6,0.052648753999999964
19,38,I,N,0.889023438,0.864318182,50.47,151,﻿64be4e952237addc8e6e4e8e,98,X,Second,21,24,F,0.31220833333333325,1440,100,6,-0.024705256000000064
19,42,I,I,0.922951389,0.936136364,35.25,166,﻿64be4e952237addc8e6e4e8e,100,B,Second,21,24,F,0.31220833333333325,1440,100,6,0.013184975000000043
19,43,I,N,0.962083333,0.954090909,30.04,171,﻿64be4e952237addc8e6e4e8e,101,X,Second,21,24,F,0.31220833333333325,1440,100,6,-0.007992423999999998
19,35,N,I,0.65109809,0.810454545,58.87,140,﻿64be4e952237addc8e6e4e8e,102,Y,Second,21,24,F,0.31220833333333325,1440,100,6,0.15935645500000006
19,29,I,N,0.606124132,0.702727273,71.6,115,﻿64be4e952237addc8e6e4e8e,103,X,Second,21,24,F,0.31220833333333325,1440,100,6,0.096603141
19,40,N,N,0.982178819,0.900227273,43.56,157,﻿64be4e952237addc8e6e4e8e,104,A,Second,21,24,F,0.31220833333333325,1440,100,6,-0.08195154599999999
19,20,I,N,0.598211806,0.541136364,85.04,79,﻿64be4e952237addc8e6e4e8e,105,X,Second,21,24,F,0.31220833333333325,1440,100,6,-0.05707544200000003
19,24,I,N,0.413328993,0.612954545,79.66,95,﻿64be4e952237addc8e6e4e8e,106,X,Second,21,24,F,0.31220833333333325,1440,100,6,0.19962555200000004
19,7,N,N,0.642643229,0.307727273,96.03,25,﻿64be4e952237addc8e6e4e8e,107,A,Second,21,24,F,0.31220833333333325,1440,100,6,-0.334915956
19,35,N,N,0.958328993,0.810454545,58.87,137,﻿64be4e952237addc8e6e4e8e,108,A,Second,21,24,F,0.31220833333333325,1440,100,6,-0.14787444799999994
19,24,I,I,0.507209201,0.612954545,79.66,94,﻿64be4e952237addc8e6e4e8e,109,B,Second,21,24,F,0.31220833333333325,1440,100,6,0.10574534400000002
19,14,N,N,0.632725694,0.433409091,91.2,53,﻿64be4e952237addc8e6e4e8e,110,A,Second,21,24,F,0.31220833333333325,1440,100,6,-0.19931660299999998
19,26,I,I,0.590568576,0.648863636,76.62,102,﻿64be4e952237addc8e6e4e8e,111,B,Second,21,24,F,0.31220833333333325,1440,100,6,0.058295059999999954
19,34,N,N,0.976167535,0.7925,61.29,133,﻿64be4e952237addc8e6e4e8e,112,A,Second,21,24,F,0.31220833333333325,1440,100,6,-0.183667535
19,38,I,I,0.772226563,0.864318182,50.47,150,﻿64be4e952237addc8e6e4e8e,113,B,Second,21,24,F,0.31220833333333325,1440,100,6,0.09209161899999996
19,20,I,I,0.554470486,0.541136364,85.04,78,﻿64be4e952237addc8e6e4e8e,114,B,Second,21,24,F,0.31220833333333325,1440,100,6,-0.01333412200000006
19,25,N,N,0.977052951,0.630909091,78.2,97,﻿64be4e952237addc8e6e4e8e,115,A,Second,21,24,F,0.31220833333333325,1440,100,6,-0.34614385999999997
19,27,N,I,0.63655816,0.666818182,75.05,108,﻿64be4e952237addc8e6e4e8e,116,Y,Second,21,24,F,0.31220833333333325,1440,100,6,0.030260021999999998
19,32,I,N,0.678025174,0.756590909,65.73,127,﻿64be4e952237addc8e6e4e8e,117,X,Second,21,24,F,0.31220833333333325,1440,100,6,0.07856573500000008
19,13,I,N,0.358142361,0.415454545,91.98,51,﻿64be4e952237addc8e6e4e8e,118,X,Second,21,24,F,0.31220833333333325,1440,100,6,0.05731218399999999
19,30,N,I,0.587013889,0.720681818,69.76,120,﻿64be4e952237addc8e6e4e8e,119,Y,Second,21,24,F,0.31220833333333325,1440,100,6,0.13366792900000002
19,7,I,N,0.262065972,0.307727273,96.03,27,﻿64be4e952237addc8e6e4e8e,120,X,Second,21,24,F,0.31220833333333325,1440,100,6,0.04566130100000004
19,2,N,I,0.164752604,0.217954545,98.2,8,﻿64be4e952237addc8e6e4e8e,121,Y,Second,21,24,F,0.31220833333333325,1440,100,6,0.053201941
19,34,I,I,0.622916667,0.7925,61.29,134,﻿64be4e952237addc8e6e4e8e,122,B,Second,21,24,F,0.31220833333333325,1440,100,6,0.16958333299999995
19,21,N,N,0.74640625,0.559090909,83.77,81,﻿64be4e952237addc8e6e4e8e,123,A,Second,21,24,F,0.31220833333333325,1440,100,6,-0.18731534100000002
19,35,I,N,0.871540799,0.810454545,58.87,139,﻿64be4e952237addc8e6e4e8e,124,X,Second,21,24,F,0.31220833333333325,1440,100,6,-0.061086254000000006
19,12,I,I,0.214392361,0.3975,92.82,46,﻿64be4e952237addc8e6e4e8e,125,B,Second,21,24,F,0.31220833333333325,1440,100,6,0.18310763900000002
19,40,I,N,0.924314236,0.900227273,43.56,159,﻿64be4e952237addc8e6e4e8e,126,X,Second,21,24,F,0.31220833333333325,1440,100,6,-0.024086962999999906
19,9,I,N,0.436627604,0.343636364,94.9,35,﻿64be4e952237addc8e6e4e8e,127,X,Second,21,24,F,0.31220833333333325,1440,100,6,-0.09299123999999998
19,21,N,I,0.352356771,0.559090909,83.77,84,﻿64be4e952237addc8e6e4e8e,128,Y,Second,21,24,F,0.31220833333333325,1440,100,6,0.206734138
19,25,N,I,0.802569444,0.630909091,78.2,100,﻿64be4e952237addc8e6e4e8e,129,Y,Second,21,24,F,0.31220833333333325,1440,100,6,-0.17166035299999993
19,37,I,I,0.817829861,0.846363636,53.4,146,﻿64be4e952237addc8e6e4e8e,130,B,Second,21,24,F,0.31220833333333325,1440,100,6,0.028533774999999983
19,15,I,I,0.435707465,0.451363636,90.29,58,﻿64be4e952237addc8e6e4e8e,131,B,Second,21,24,F,0.31220833333333325,1440,100,6,0.015656170999999997
19,18,I,N,0.40921875,0.505227273,87.36,71,﻿64be4e952237addc8e6e4e8e,132,X,Second,21,24,F,0.31220833333333325,1440,100,6,0.09600852300000001
19,28,I,N,0.755486111,0.684772727,73.36,111,﻿64be4e952237addc8e6e4e8e,133,X,Second,21,24,F,0.31220833333333325,1440,100,6,-0.07071338399999993
19,37,I,N,0.948958333,0.846363636,53.4,147,﻿64be4e952237addc8e6e4e8e,134,X,Second,21,24,F,0.31220833333333325,1440,100,6,-0.10259469700000001
19,10,I,I,0.329444444,0.361590909,94.23,38,﻿64be4e952237addc8e6e4e8e,135,B,Second,21,24,F,0.31220833333333325,1440,100,6,0.03214646500000001
19,12,N,N,0.775199653,0.3975,92.82,45,﻿64be4e952237addc8e6e4e8e,136,A,Second,21,24,F,0.31220833333333325,1440,100,6,-0.377699653
19,22,I,N,0.831475694,0.577045455,82.45,87,﻿64be4e952237addc8e6e4e8e,137,X,Second,21,24,F,0.31220833333333325,1440,100,6,-0.25443023899999995
19,6,I,N,0.409487847,0.289772727,96.58,23,﻿64be4e952237addc8e6e4e8e,138,X,Second,21,24,F,0.31220833333333325,1440,100,6,-0.11971512000000001
19,4,I,N,0.506649306,0.253863636,97.45,15,﻿64be4e952237addc8e6e4e8e,139,X,Second,21,24,F,0.31220833333333325,1440,100,6,-0.25278567
19,11,I,I,0.380525174,0.379545455,93.55,42,﻿64be4e952237addc8e6e4e8e,140,B,Second,21,24,F,0.31220833333333325,1440,100,6,-9.797190000000455e-4
19,28,N,N,0.920646701,0.684772727,73.36,109,﻿64be4e952237addc8e6e4e8e,141,A,Second,21,24,F,0.31220833333333325,1440,100,6,-0.235873974
19,1,N,N,0.836280382,0.2,98.47,1,﻿64be4e952237addc8e6e4e8e,142,A,Second,21,24,F,0.31220833333333325,1440,100,6,-0.636280382
19,33,N,N,0.943133681,0.774545455,63.57,129,﻿64be4e952237addc8e6e4e8e,143,A,Second,21,24,F,0.31220833333333325,1440,100,6,-0.1685882259999999
19,42,I,N,0.901974826,0.936136364,35.25,167,﻿64be4e952237addc8e6e4e8e,144,X,Second,21,24,F,0.31220833333333325,1440,100,6,0.03416153799999999
19,25,I,N,0.663224826,0.630909091,78.2,99,﻿64be4e952237addc8e6e4e8e,145,X,Second,21,24,F,0.31220833333333325,1440,100,6,-0.03231573499999996
19,34,N,I,0.838524306,0.7925,61.29,136,﻿64be4e952237addc8e6e4e8e,146,Y,Second,21,24,F,0.31220833333333325,1440,100,6,-0.04602430600000007
19,5,I,I,0.123962674,0.271818182,96.99,18,﻿64be4e952237addc8e6e4e8e,147,B,Second,21,24,F,0.31220833333333325,1440,100,6,0.14785550800000002
19,13,N,N,0.726232639,0.415454545,91.98,49,﻿64be4e952237addc8e6e4e8e,148,A,Second,21,24,F,0.31220833333333325,1440,100,6,-0.310778094
19,17,I,N,0.601710069,0.487272727,88.33,67,﻿64be4e952237addc8e6e4e8e,149,X,Second,21,24,F,0.31220833333333325,1440,100,6,-0.114437342
19,16,N,I,0.388472222,0.469318182,89.4,64,﻿64be4e952237addc8e6e4e8e,151,Y,Second,21,24,F,0.31220833333333325,1440,100,6,0.08084596
19,7,I,I,0.262400174,0.307727273,96.03,26,﻿64be4e952237addc8e6e4e8e,152,B,Second,21,24,F,0.31220833333333325,1440,100,6,0.04532709900000004
19,23,I,I,0.340959201,0.595,81.13,90,﻿64be4e952237addc8e6e4e8e,153,B,Second,21,24,F,0.31220833333333325,1440,100,6,0.254040799
19,9,N,N,0.861514757,0.343636364,94.9,33,﻿64be4e952237addc8e6e4e8e,154,A,Second,21,24,F,0.31220833333333325,1440,100,6,-0.5178783929999999
19,5,N,I,0.406427951,0.271818182,96.99,20,﻿64be4e952237addc8e6e4e8e,155,Y,Second,21,24,F,0.31220833333333325,1440,100,6,-0.134609769
19,36,I,N,0.872669271,0.828409091,56.22,143,﻿64be4e952237addc8e6e4e8e,156,X,Second,21,24,F,0.31220833333333325,1440,100,6,-0.04426017999999998
19,44,I,N,0.971111111,0.972045455,23.65,175,﻿64be4e952237addc8e6e4e8e,157,X,Second,21,24,F,0.31220833333333325,1440,100,6,9.343439999999203e-4
19,17,N,I,0.612122396,0.487272727,88.33,68,﻿64be4e952237addc8e6e4e8e,158,Y,Second,21,24,F,0.31220833333333325,1440,100,6,-0.12484966899999994
19,20,N,I,0.466927083,0.541136364,85.04,80,﻿64be4e952237addc8e6e4e8e,159,Y,Second,21,24,F,0.31220833333333325,1440,100,6,0.07420928099999996
19,31,I,N,0.77859809,0.738636364,67.86,123,﻿64be4e952237addc8e6e4e8e,160,X,Second,21,24,F,0.31220833333333325,1440,100,6,-0.03996172600000003
19,8,N,N,0.878033854,0.325681818,95.52,29,﻿64be4e952237addc8e6e4e8e,162,A,Second,21,24,F,0.31220833333333325,1440,100,6,-0.552352036
19,41,I,I,0.928615451,0.918181818,39.66,162,﻿64be4e952237addc8e6e4e8e,163,B,Second,21,24,F,0.31220833333333325,1440,100,6,-0.010433632999999998
19,39,N,N,0.974322917,0.882272727,47.19,153,﻿64be4e952237addc8e6e4e8e,164,A,Second,21,24,F,0.31220833333333325,1440,100,6,-0.09205018999999992
19,21,I,I,0.419796007,0.559090909,83.77,82,﻿64be4e952237addc8e6e4e8e,165,B,Second,21,24,F,0.31220833333333325,1440,100,6,0.139294902
19,17,N,N,0.875134549,0.487272727,88.33,65,﻿64be4e952237addc8e6e4e8e,166,A,Second,21,24,F,0.31220833333333325,1440,100,6,-0.38786182199999997
19,8,I,N,0.252070313,0.325681818,95.52,31,﻿64be4e952237addc8e6e4e8e,167,X,Second,21,24,F,0.31220833333333325,1440,100,6,0.07361150500000002
19,15,N,N,0.831258681,0.451363636,90.29,57,﻿64be4e952237addc8e6e4e8e,168,A,Second,21,24,F,0.31220833333333325,1440,100,6,-0.379895045
19,8,I,I,0.159817708,0.325681818,95.52,30,﻿64be4e952237addc8e6e4e8e,169,B,Second,21,24,F,0.31220833333333325,1440,100,6,0.16586411
19,37,N,I,0.887061632,0.846363636,53.4,148,﻿64be4e952237addc8e6e4e8e,170,Y,Second,21,24,F,0.31220833333333325,1440,100,6,-0.040697996000000014
19,30,I,N,0.610681424,0.720681818,69.76,119,﻿64be4e952237addc8e6e4e8e,171,X,Second,21,24,F,0.31220833333333325,1440,100,6,0.11000039399999995
19,19,N,I,0.432717014,0.523181818,86.21,76,﻿64be4e952237addc8e6e4e8e,172,Y,Second,21,24,F,0.31220833333333325,1440,100,6,0.09046480399999995
19,44,N,N,0.991106771,0.972045455,23.65,173,﻿64be4e952237addc8e6e4e8e,173,A,Second,21,24,F,0.31220833333333325,1440,100,6,-0.01906131600000005
19,1,N,I,0.218940972,0.2,98.47,4,﻿64be4e952237addc8e6e4e8e,174,Y,Second,21,24,F,0.31220833333333325,1440,100,6,-0.018940972
19,43,N,I,0.929097222,0.954090909,30.04,172,﻿64be4e952237addc8e6e4e8e,175,Y,Second,21,24,F,0.31220833333333325,1440,100,6,0.024993687000000042
19,40,N,I,0.584309896,0.900227273,43.56,160,﻿64be4e952237addc8e6e4e8e,176,Y,Second,21,24,F,0.31220833333333325,1440,100,6,0.315917377
19,23,I,N,0.412634549,0.595,81.13,91,﻿64be4e952237addc8e6e4e8e,177,X,Second,21,24,F,0.31220833333333325,1440,100,6,0.18236545099999996
19,41,I,N,0.719804688,0.918181818,39.66,163,﻿64be4e952237addc8e6e4e8e,178,X,Second,21,24,F,0.31220833333333325,1440,100,6,0.19837713
19,3,N,I,0.260017361,0.235909091,97.87,12,﻿64be4e952237addc8e6e4e8e,179,Y,Second,21,24,F,0.31220833333333325,1440,100,6,-0.024108270000000015
19,36,N,N,0.967842882,0.828409091,56.22,141,﻿64be4e952237addc8e6e4e8e,180,A,Second,21,24,F,0.31220833333333325,1440,100,6,-0.13943379099999997
19,45,I,N,0.96265191,0.99,14.13,179,﻿64be4e952237addc8e6e4e8e,181,X,Second,21,24,F,0.31220833333333325,1440,100,6,0.027348089999999936
19,31,N,I,0.364913194,0.738636364,67.86,124,﻿64be4e952237addc8e6e4e8e,182,Y,Second,21,24,F,0.31220833333333325,1440,100,6,0.37372317
19,22,I,I,0.170177951,0.577045455,82.45,86,﻿64be4e952237addc8e6e4e8e,183,B,Second,21,24,F,0.31220833333333325,1440,100,6,0.40686750400000005
19,26,N,N,0.921475694,0.648863636,76.62,101,﻿64be4e952237addc8e6e4e8e,184,A,Second,21,24,F,0.31220833333333325,1440,100,6,-0.272612058
19,29,I,I,0.374227431,0.702727273,71.6,114,﻿64be4e952237addc8e6e4e8e,185,B,Second,21,24,F,0.31220833333333325,1440,100,6,0.32849984200000004
111,34,I,I,0.703703704,0.7925,61.29,134,﻿64be4dadba504fc4a845f508,0,B,First,24,20,F,0.3208072916666666,1536,100,6,0.08879629599999994
111,39,I,N,0.899074131,0.882272727,47.19,155,﻿64be4dadba504fc4a845f508,1,X,First,24,20,F,0.3208072916666666,1536,100,6,-0.016801403999999964
111,12,I,N,0.161111125,0.3975,92.82,47,﻿64be4dadba504fc4a845f508,2,X,First,24,20,F,0.3208072916666666,1536,100,6,0.23638887500000003
111,5,N,N,0.147222236,0.271818182,96.99,17,﻿64be4dadba504fc4a845f508,3,A,First,24,20,F,0.3208072916666666,1536,100,6,0.12459594600000001
111,22,N,N,0.904629601,0.577045455,82.45,85,﻿64be4dadba504fc4a845f508,4,A,First,24,20,F,0.3208072916666666,1536,100,6,-0.32758414599999996
111,1,I,I,0.08425928,0.2,98.47,2,﻿64be4dadba504fc4a845f508,5,B,First,24,20,F,0.3208072916666666,1536,100,6,0.11574072
111,1,I,N,0.015740748,0.2,98.47,3,﻿64be4dadba504fc4a845f508,6,X,First,24,20,F,0.3208072916666666,1536,100,6,0.184259252
111,1,N,N,0.026851866,0.2,98.47,1,﻿64be4dadba504fc4a845f508,7,A,First,24,20,F,0.3208072916666666,1536,100,6,0.173148134
111,7,I,I,0.037037037,0.307727273,96.03,26,﻿64be4dadba504fc4a845f508,8,B,First,24,20,F,0.3208072916666666,1536,100,6,0.27069023600000003
111,44,I,N,0.962037122,0.972045455,23.65,175,﻿64be4dadba504fc4a845f508,9,X,First,24,20,F,0.3208072916666666,1536,100,6,0.010008332999999925
111,27,N,N,0.72592594,0.666818182,75.05,105,﻿64be4dadba504fc4a845f508,10,A,First,24,20,F,0.3208072916666666,1536,100,6,-0.05910775800000001
